Absorbance:209		
188.012	-0	
188.47	-0	
188.927	-0	
189.385	-0	
189.842	0.92	
190.3	0.44	
190.757	-0	
191.215	-0	
191.672	-0.35	
192.129	-0.12	
192.586	-0.4	
193.044	-0	
193.501	0.03	
193.958	-0	
194.415	-0	
194.872	-1.47	
195.329	-0	
195.787	-0.4	
196.244	-0	
196.7	-0	
197.157	-0	
197.614	0.05	
198.071	-1.01	
198.528	-0.14	
198.985	0.06	
199.441	-0.11	
199.898	-0.21	
200.355	-0.15	
200.812	-0.09	
201.268	-0.29	
201.725	-0.02	
202.181	-0.05	
202.638	-0.29	
203.094	-0.22	
203.551	-0.08	
204.007	-0.16	
204.463	-0.05	
204.92	-0.16	
205.376	-0	
205.832	-0.09	
206.288	-0.03	
206.744	-0.11	
207.201	-0.08	
207.657	-0.15	
208.113	-0.11	
208.569	-0.08	
209.025	-0.16	
209.481	-0.1	
209.937	-0.11	
210.392	-0.03	
210.848	-0.11	
211.304	-0.18	
211.76	-0.01	
212.215	-0.09	
212.671	0.01	
213.127	-0.02	
213.582	0.13	
214.038	-0.04	
214.494	0.02	
214.949	0.04	
215.404	0.11	
215.86	0.02	
216.315	0.04	
216.771	0.07	
217.226	0.02	
217.681	0.02	
218.136	-0.01	
218.592	0.02	
219.047	-0	
219.502	-0.04	
219.957	-0.04	
220.412	-0.06	
220.867	-0.06	
221.322	-0.07	
221.777	-0.11	
222.232	-0.09	
222.687	-0.11	
223.142	-0.11	
223.596	-0.13	
224.051	-0.13	
224.506	-0.14	
224.96	-0.14	
225.415	-0.16	
225.87	-0.16	
226.324	-0.16	
226.779	-0.16	
227.233	-0.17	
227.688	-0.17	
228.142	-0.18	
228.597	-0.18	
229.051	-0.18	
229.505	-0.18	
229.959	-0.18	
230.414	-0.19	
230.868	-0.18	
231.322	-0.18	
231.776	-0.19	
232.23	-0.19	
232.684	-0.19	
233.138	-0.19	
233.592	-0.2	
234.046	-0.2	
234.5	-0.19	
234.954	-0.19	
235.408	-0.2	
235.861	-0.2	
236.315	-0.2	
236.769	-0.2	
237.222	-0.2	
237.676	-0.2	
238.13	-0.21	
238.583	-0.19	
239.037	-0.2	
239.49	-0.2	
239.944	-0.19	
240.397	-0.21	
240.85	-0.21	
241.304	-0.2	
241.757	-0.21	
242.21	-0.21	
242.663	-0.21	
243.117	-0.2	
243.57	-0.21	
244.023	-0.21	
244.476	-0.2	
244.929	-0.22	
245.382	-0.21	
245.835	-0.21	
246.288	-0.21	
246.741	-0.21	
247.193	-0.22	
247.646	-0.22	
248.099	-0.21	
248.552	-0.22	
249.004	-0.23	
249.457	-0.21	
249.909	-0.21	
250.362	-0.22	
250.814	-0.22	
251.267	-0.22	
251.719	-0.22	
252.172	-0.23	
252.624	-0.23	
253.076	-0.23	
253.529	-0.23	
253.981	-0.23	
254.433	-0.22	
254.885	-0.23	
255.337	-0.23	
255.79	-0.22	
256.242	-0.22	
256.694	-0.23	
257.146	-0.23	
257.598	-0.23	
258.049	-0.23	
258.501	-0.22	
258.953	-0.23	
259.405	-0.22	
259.857	-0.23	
260.308	-0.23	
260.76	-0.23	
261.212	-0.22	
261.663	-0.23	
262.115	-0.23	
262.566	-0.23	
263.018	-0.23	
263.469	-0.23	
263.92	-0.23	
264.372	-0.23	
264.823	-0.23	
265.274	-0.23	
265.726	-0.23	
266.177	-0.23	
266.628	-0.23	
267.079	-0.23	
267.53	-0.23	
267.981	-0.23	
268.432	-0.23	
268.883	-0.23	
269.334	-0.23	
269.785	-0.23	
270.236	-0.23	
270.687	-0.23	
271.137	-0.23	
271.588	-0.23	
272.039	-0.23	
272.489	-0.23	
272.94	-0.24	
273.391	-0.23	
273.841	-0.23	
274.292	-0.23	
274.742	-0.23	
275.192	-0.24	
275.643	-0.24	
276.093	-0.24	
276.543	-0.24	
276.994	-0.24	
277.444	-0.25	
277.894	-0.24	
278.344	-0.24	
278.794	-0.24	
279.244	-0.24	
279.694	-0.24	
280.144	-0.24	
280.594	-0.24	
281.044	-0.24	
281.494	-0.24	
281.944	-0.24	
282.394	-0.24	
282.843	-0.24	
283.293	-0.24	
283.743	-0.24	
284.192	-0.24	
284.642	-0.24	
285.091	-0.24	
285.541	-0.24	
285.99	-0.24	
286.44	-0.25	
286.889	-0.24	
287.338	-0.24	
287.788	-0.24	
288.237	-0.24	
288.686	-0.24	
289.135	-0.24	
289.584	-0.24	
290.034	-0.25	
290.483	-0.24	
290.932	-0.24	
291.381	-0.24	
291.83	-0.25	
292.278	-0.25	
292.727	-0.24	
293.176	-0.24	
293.625	-0.25	
294.074	-0.25	
294.522	-0.25	
294.971	-0.25	
295.42	-0.25	
295.868	-0.25	
296.317	-0.25	
296.765	-0.25	
297.214	-0.25	
297.662	-0.26	
298.11	-0.25	
298.559	-0.25	
299.007	-0.25	
299.455	-0.26	
299.903	-0.25	
300.352	-0.26	
300.8	-0.26	
301.248	-0.26	
301.696	-0.25	
302.144	-0.26	
302.592	-0.26	
303.04	-0.26	
303.488	-0.26	
303.936	-0.26	
304.383	-0.26	
304.831	-0.26	
305.279	-0.26	
305.727	-0.26	
306.174	-0.26	
306.622	-0.26	
307.069	-0.25	
307.517	-0.27	
307.964	-0.26	
308.412	-0.26	
308.859	-0.26	
309.306	-0.26	
309.754	-0.26	
310.201	-0.26	
310.648	-0.26	
311.096	-0.27	
311.543	-0.26	
311.99	-0.26	
312.437	-0.26	
312.884	-0.26	
313.331	-0.27	
313.778	-0.27	
314.225	-0.27	
314.672	-0.27	
315.118	-0.27	
315.565	-0.28	
316.012	-0.28	
316.459	-0.27	
316.905	-0.27	
317.352	-0.27	
317.798	-0.27	
318.245	-0.27	
318.691	-0.27	
319.138	-0.28	
319.584	-0.27	
320.031	-0.28	
320.477	-0.28	
320.923	-0.29	
321.37	-0.29	
321.816	-0.29	
322.262	-0.28	
322.708	-0.28	
323.154	-0.27	
323.6	-0.26	
324.046	-0.27	
324.492	-0.27	
324.938	-0.27	
325.384	-0.26	
325.83	-0.27	
326.276	-0.27	
326.721	-0.28	
327.167	-0.27	
327.613	-0.27	
328.058	-0.28	
328.504	-0.28	
328.949	-0.28	
329.395	-0.28	
329.84	-0.28	
330.286	-0.28	
330.731	-0.28	
331.177	-0.28	
331.622	-0.28	
332.067	-0.28	
332.512	-0.29	
332.957	-0.28	
333.403	-0.28	
333.848	-0.29	
334.293	-0.28	
334.738	-0.28	
335.183	-0.29	
335.628	-0.28	
336.072	-0.28	
336.517	-0.28	
336.962	-0.28	
337.407	-0.28	
337.852	-0.28	
338.296	-0.29	
338.741	-0.29	
339.185	-0.29	
339.63	-0.29	
340.074	-0.29	
340.519	-0.28	
340.963	-0.29	
341.408	-0.28	
341.852	-0.28	
342.296	-0.28	
342.741	-0.29	
343.185	-0.29	
343.629	-0.29	
344.073	-0.29	
344.517	-0.28	
344.961	-0.29	
345.405	-0.3	
345.849	-0.3	
346.293	-0.29	
346.737	-0.29	
347.181	-0.28	
347.624	-0.3	
348.068	-0.29	
348.512	-0.29	
348.955	-0.3	
349.399	-0.29	
349.843	-0.3	
350.286	-0.29	
350.73	-0.29	
351.173	-0.29	
351.617	-0.29	
352.06	-0.29	
352.503	-0.29	
352.946	-0.29	
353.39	-0.29	
353.833	-0.29	
354.276	-0.28	
354.719	-0.29	
355.162	-0.29	
355.605	-0.29	
356.048	-0.29	
356.491	-0.29	
356.934	-0.29	
357.377	-0.29	
357.82	-0.29	
358.262	-0.29	
358.705	-0.28	
359.148	-0.29	
359.59	-0.29	
360.033	-0.29	
360.475	-0.28	
360.918	-0.28	
361.36	-0.29	
361.803	-0.29	
362.245	-0.3	
362.688	-0.29	
363.13	-0.3	
363.572	-0.29	
364.014	-0.29	
364.456	-0.29	
364.899	-0.29	
365.341	-0.29	
365.783	-0.29	
366.225	-0.28	
366.667	-0.28	
367.108	-0.29	
367.55	-0.28	
367.992	-0.29	
368.434	-0.29	
368.876	-0.29	
369.317	-0.29	
369.759	-0.29	
370.201	-0.29	
370.642	-0.28	
371.084	-0.29	
371.525	-0.28	
371.966	-0.28	
372.408	-0.28	
372.849	-0.28	
373.29	-0.28	
373.732	-0.29	
374.173	-0.28	
374.614	-0.28	
375.055	-0.28	
375.496	-0.28	
375.937	-0.29	
376.378	-0.29	
376.819	-0.28	
377.26	-0.29	
377.701	-0.29	
378.142	-0.28	
378.583	-0.29	
379.023	-0.29	
379.464	-0.28	
379.905	-0.28	
380.345	-0.28	
380.786	-0.28	
381.226	-0.28	
381.667	-0.29	
382.107	-0.28	
382.548	-0.29	
382.988	-0.28	
383.428	-0.28	
383.868	-0.28	
384.309	-0.28	
384.749	-0.28	
385.189	-0.27	
385.629	-0.27	
386.069	-0.28	
386.509	-0.27	
386.949	-0.29	
387.389	-0.3	
387.829	-0.29	
388.268	-0.28	
388.708	-0.27	
389.148	-0.28	
389.588	-0.29	
390.027	-0.28	
390.467	-0.27	
390.906	-0.27	
391.346	-0.27	
391.785	-0.28	
392.225	-0.28	
392.664	-0.27	
393.103	-0.28	
393.543	-0.28	
393.982	-0.27	
394.421	-0.27	
394.86	-0.27	
395.299	-0.28	
395.738	-0.27	
396.177	-0.26	
396.616	-0.27	
397.055	-0.27	
397.494	-0.27	
397.933	-0.28	
398.372	-0.27	
398.81	-0.27	
399.249	-0.27	
399.688	-0.27	
400.126	-0.27	
400.565	-0.26	
401.004	-0.26	
401.442	-0.27	
401.88	-0.27	
402.319	-0.26	
402.757	-0.27	
403.195	-0.26	
403.634	-0.26	
404.072	-0.27	
404.51	-0.26	
404.948	-0.26	
405.386	-0.26	
405.824	-0.27	
406.262	-0.27	
406.7	-0.26	
407.138	-0.27	
407.576	-0.26	
408.014	-0.26	
408.452	-0.26	
408.889	-0.27	
409.327	-0.27	
409.765	-0.26	
410.202	-0.26	
410.64	-0.27	
411.077	-0.25	
411.515	-0.27	
411.952	-0.27	
412.389	-0.26	
412.827	-0.25	
413.264	-0.25	
413.701	-0.26	
414.138	-0.26	
414.575	-0.25	
415.013	-0.24	
415.45	-0.25	
415.887	-0.25	
416.324	-0.25	
416.76	-0.26	
417.197	-0.25	
417.634	-0.25	
418.071	-0.25	
418.508	-0.25	
418.944	-0.25	
419.381	-0.25	
419.818	-0.25	
420.254	-0.25	
420.691	-0.25	
421.127	-0.25	
421.563	-0.26	
422	-0.25	
422.436	-0.24	
422.872	-0.24	
423.309	-0.24	
423.745	-0.24	
424.181	-0.23	
424.617	-0.24	
425.053	-0.25	
425.489	-0.24	
425.925	-0.24	
426.361	-0.24	
426.797	-0.24	
427.233	-0.24	
427.668	-0.23	
428.104	-0.24	
428.54	-0.24	
428.975	-0.24	
429.411	-0.23	
429.847	-0.24	
430.282	-0.24	
430.717	-0.22	
431.153	-0.23	
431.588	-0.22	
432.024	-0.21	
432.459	-0.22	
432.894	-0.21	
433.329	-0.21	
433.764	-0.21	
434.199	-0.21	
434.634	-0.21	
435.069	-0.21	
435.504	-0.2	
435.939	-0.21	
436.374	-0.21	
436.809	-0.2	
437.244	-0.2	
437.678	-0.2	
438.113	-0.2	
438.548	-0.19	
438.982	-0.19	
439.417	-0.18	
439.851	-0.17	
440.286	-0.2	
440.72	-0.18	
441.154	-0.2	
441.589	-0.18	
442.023	-0.19	
442.457	-0.19	
442.891	-0.17	
443.326	-0.18	
443.76	-0.17	
444.194	-0.17	
444.628	-0.17	
445.062	-0.15	
445.495	-0.17	
445.929	-0.16	
446.363	-0.17	
446.797	-0.15	
447.23	-0.16	
447.664	-0.16	
448.098	-0.15	
448.531	-0.15	
448.965	-0.14	
449.398	-0.14	
449.832	-0.15	
450.265	-0.16	
450.698	-0.15	
451.132	-0.15	
451.565	-0.13	
451.998	-0.13	
452.431	-0.13	
452.864	-0.14	
453.297	-0.12	
453.73	-0.12	
454.163	-0.12	
454.596	-0.12	
455.029	-0.11	
455.462	-0.12	
455.895	-0.11	
456.327	-0.11	
456.76	-0.11	
457.193	-0.1	
457.625	-0.11	
458.058	-0.1	
458.49	-0.09	
458.923	-0.1	
459.355	-0.09	
459.787	-0.1	
460.22	-0.09	
460.652	-0.09	
461.084	-0.09	
461.516	-0.08	
461.948	-0.07	
462.381	-0.08	
462.813	-0.07	
463.245	-0.07	
463.676	-0.07	
464.108	-0.06	
464.54	-0.07	
464.972	-0.08	
465.404	-0.06	
465.835	-0.07	
466.267	-0.05	
466.699	-0.07	
467.13	-0.06	
467.562	-0.06	
467.993	-0.07	
468.424	-0.05	
468.856	-0.05	
469.287	-0.06	
469.718	-0.06	
470.15	-0.04	
470.581	-0.05	
471.012	-0.04	
471.443	-0.05	
471.874	-0.04	
472.305	-0.05	
472.736	-0.06	
473.167	-0.04	
473.598	-0.04	
474.028	-0.04	
474.459	-0.04	
474.89	-0.04	
475.32	-0.05	
475.751	-0.04	
476.182	-0.04	
476.612	-0.03	
477.043	-0.02	
477.473	-0.02	
477.903	-0.03	
478.334	-0.03	
478.764	-0.02	
479.194	-0.02	
479.624	-0.02	
480.054	-0.03	
480.484	-0.01	
480.914	-0.01	
481.344	-0.01	
481.774	-0.02	
482.204	-0.02	
482.634	-0.01	
483.064	-0.01	
483.494	-0.01	
483.923	-0.01	
484.353	-0.02	
484.782	-0.02	
485.212	-0.01	
485.642	-0.02	
486.071	-0.02	
486.5	-0.01	
486.93	-0	
487.359	-0	
487.788	-0.01	
488.217	-0	
488.647	-0.01	
489.076	-0	
489.505	-0	
489.934	0.01	
490.363	0.01	
490.792	0.02	
491.221	0.01	
491.649	0.02	
492.078	0	
492.507	0	
492.936	0	
493.364	0.01	
493.793	0.01	
494.221	0.02	
494.65	0.02	
495.078	0.01	
495.507	0.01	
495.935	0.03	
496.363	0.02	
496.791	0.03	
497.22	0.03	
497.648	0.03	
498.076	0.05	
498.504	0.05	
498.932	0.04	
499.36	0.03	
499.788	0.05	
500.216	0.04	
500.643	0.03	
501.071	0.04	
501.499	0.04	
501.927	0.05	
502.354	0.04	
502.782	0.05	
503.209	0.04	
503.637	0.05	
504.064	0.05	
504.491	0.05	
504.919	0.06	
505.346	0.06	
505.773	0.05	
506.2	0.06	
506.628	0.06	
507.055	0.05	
507.482	0.07	
507.909	0.06	
508.335	0.06	
508.762	0.06	
509.189	0.06	
509.616	0.05	
510.043	0.06	
510.469	0.06	
510.896	0.06	
511.323	0.07	
511.749	0.06	
512.176	0.06	
512.602	0.07	
513.028	0.07	
513.455	0.07	
513.881	0.07	
514.307	0.07	
514.733	0.07	
515.16	0.08	
515.586	0.05	
516.012	0.06	
516.438	0.06	
516.864	0.07	
517.29	0.07	
517.715	0.06	
518.141	0.06	
518.567	0.05	
518.993	0.06	
519.418	0.06	
519.844	0.05	
520.269	0.06	
520.695	0.05	
521.12	0.04	
521.546	0.04	
521.971	0.05	
522.396	0.04	
522.822	0.05	
523.247	0.05	
523.672	0.05	
524.097	0.04	
524.522	0.04	
524.947	0.04	
525.372	0.05	
525.797	0.04	
526.222	0.03	
526.647	0.02	
527.071	0.03	
527.496	0.03	
527.921	0.03	
528.345	0.02	
528.77	0.02	
529.194	0.02	
529.619	0.01	
530.043	0.02	
530.468	0.02	
530.892	0.02	
531.316	0	
531.74	-0	
532.164	0	
532.589	-0	
533.013	0.01	
533.437	-0.01	
533.861	-0.01	
534.284	-0	
534.708	-0.03	
535.132	-0.01	
535.556	-0.02	
535.98	-0.02	
536.403	-0.03	
536.827	-0.02	
537.25	-0.04	
537.674	-0.03	
538.097	-0.04	
538.521	-0.05	
538.944	-0.04	
539.367	-0.04	
539.791	-0.05	
540.214	-0.06	
540.637	-0.06	
541.06	-0.06	
541.483	-0.08	
541.906	-0.06	
542.329	-0.08	
542.752	-0.07	
543.175	-0.09	
543.598	-0.08	
544.02	-0.08	
544.443	-0.08	
544.866	-0.09	
545.288	-0.1	
545.711	-0.11	
546.133	-0.09	
546.556	-0.1	
546.978	-0.11	
547.4	-0.12	
547.823	-0.11	
548.245	-0.13	
548.667	-0.11	
549.089	-0.11	
549.511	-0.13	
549.933	-0.1	
550.355	-0.12	
550.777	-0.12	
551.199	-0.11	
551.621	-0.13	
552.043	-0.12	
552.465	-0.14	
552.886	-0.12	
553.308	-0.13	
553.729	-0.14	
554.151	-0.15	
554.572	-0.14	
554.994	-0.14	
555.415	-0.16	
555.837	-0.15	
556.258	-0.15	
556.679	-0.16	
557.1	-0.15	
557.521	-0.15	
557.942	-0.17	
558.363	-0.16	
558.784	-0.16	
559.205	-0.16	
559.626	-0.17	
560.047	-0.17	
560.468	-0.16	
560.888	-0.18	
561.309	-0.18	
561.73	-0.19	
562.15	-0.19	
562.571	-0.19	
562.991	-0.19	
563.412	-0.2	
563.832	-0.19	
564.252	-0.2	
564.673	-0.19	
565.093	-0.19	
565.513	-0.2	
565.933	-0.19	
566.353	-0.19	
566.773	-0.19	
567.193	-0.2	
567.613	-0.21	
568.033	-0.21	
568.452	-0.21	
568.872	-0.21	
569.292	-0.22	
569.711	-0.22	
570.131	-0.23	
570.551	-0.22	
570.97	-0.23	
571.389	-0.23	
571.809	-0.24	
572.228	-0.24	
572.647	-0.23	
573.067	-0.23	
573.486	-0.25	
573.905	-0.25	
574.324	-0.24	
574.743	-0.23	
575.162	-0.24	
575.581	-0.24	
576	-0.23	
576.419	-0.23	
576.837	-0.25	
577.256	-0.24	
577.675	-0.25	
578.093	-0.26	
578.512	-0.26	
578.93	-0.24	
579.349	-0.24	
579.767	-0.25	
580.185	-0.25	
580.604	-0.25	
581.022	-0.24	
581.44	-0.27	
581.858	-0.27	
582.276	-0.26	
582.694	-0.25	
583.112	-0.26	
583.53	-0.25	
583.948	-0.25	
584.366	-0.25	
584.784	-0.27	
585.201	-0.28	
585.619	-0.27	
586.037	-0.26	
586.454	-0.25	
586.872	-0.26	
587.289	-0.25	
587.707	-0.26	
588.124	-0.26	
588.541	-0.26	
588.958	-0.25	
589.376	-0.25	
589.793	-0.26	
590.21	-0.25	
590.627	-0.25	
591.044	-0.24	
591.461	-0.24	
591.878	-0.25	
592.294	-0.25	
592.711	-0.26	
593.128	-0.27	
593.545	-0.27	
593.961	-0.27	
594.378	-0.26	
594.794	-0.24	
595.211	-0.24	
595.627	-0.26	
596.043	-0.25	
596.46	-0.24	
596.876	-0.25	
597.292	-0.25	
597.708	-0.27	
598.124	-0.26	
598.54	-0.25	
598.956	-0.27	
599.372	-0.27	
599.788	-0.26	
600.204	-0.27	
600.62	-0.26	
601.035	-0.26	
601.451	-0.25	
601.867	-0.25	
602.282	-0.25	
602.698	-0.25	
603.113	-0.23	
603.529	-0.25	
603.944	-0.25	
604.359	-0.27	
604.774	-0.26	
605.19	-0.26	
605.605	-0.25	
606.02	-0.27	
606.435	-0.25	
606.85	-0.26	
607.265	-0.26	
607.68	-0.27	
608.094	-0.26	
608.509	-0.24	
608.924	-0.26	
609.338	-0.25	
609.753	-0.25	
610.168	-0.26	
610.582	-0.24	
610.997	-0.26	
611.411	-0.25	
611.825	-0.24	
612.24	-0.26	
612.654	-0.25	
613.068	-0.24	
613.482	-0.24	
613.896	-0.25	
614.31	-0.25	
614.724	-0.25	
615.138	-0.28	
615.552	-0.25	
615.966	-0.25	
616.379	-0.24	
616.793	-0.24	
617.207	-0.24	
617.62	-0.25	
618.034	-0.24	
618.447	-0.24	
618.861	-0.24	
619.274	-0.23	
619.687	-0.23	
620.101	-0.24	
620.514	-0.24	
620.927	-0.23	
621.34	-0.23	
621.753	-0.21	
622.166	-0.25	
622.579	-0.25	
622.992	-0.25	
623.405	-0.24	
623.817	-0.22	
624.23	-0.24	
624.643	-0.23	
625.055	-0.24	
625.468	-0.23	
625.88	-0.23	
626.293	-0.21	
626.705	-0.23	
627.118	-0.23	
627.53	-0.24	
627.942	-0.23	
628.354	-0.22	
628.766	-0.21	
629.179	-0.22	
629.591	-0.21	
630.003	-0.22	
630.414	-0.22	
630.826	-0.21	
631.238	-0.21	
631.65	-0.2	
632.061	-0.21	
632.473	-0.2	
632.885	-0.2	
633.296	-0.21	
633.708	-0.21	
634.119	-0.18	
634.53	-0.18	
634.942	-0.2	
635.353	-0.2	
635.764	-0.18	
636.175	-0.2	
636.586	-0.22	
636.998	-0.22	
637.408	-0.22	
637.819	-0.21	
638.23	-0.18	
638.641	-0.19	
639.052	-0.2	
639.463	-0.19	
639.873	-0.19	
640.284	-0.19	
640.694	-0.19	
641.105	-0.2	
641.515	-0.18	
641.926	-0.19	
642.336	-0.18	
642.746	-0.19	
643.157	-0.15	
643.567	-0.19	
643.977	-0.18	
644.387	-0.18	
644.797	-0.2	
645.207	-0.18	
645.617	-0.16	
646.026	-0.18	
646.436	-0.15	
646.846	-0.19	
647.256	-0.15	
647.665	-0.15	
648.075	-0.17	
648.484	-0.2	
648.894	-0.19	
649.303	-0.21	
649.713	-0.18	
650.122	-0.2	
650.531	-0.2	
650.94	-0.17	
651.349	-0.17	
651.758	-0.17	
652.167	-0.21	
652.576	-0.17	
652.985	-0.19	
653.394	-0.19	
653.803	-0.18	
654.212	-0.18	
654.62	-0.17	
655.029	-0.19	
655.437	-0.15	
655.846	-0.25	
656.254	-0.34	
656.663	-0.29	
657.071	-0.27	
657.479	-0.22	
657.888	-0.24	
658.296	-0.23	
658.704	-0.22	
659.112	-0.2	
659.52	-0.2	
659.928	-0.18	
660.336	-0.17	
660.744	-0.18	
661.152	-0.17	
661.559	-0.17	
661.967	-0.16	
662.375	-0.16	
662.782	-0.17	
663.19	-0.16	
663.597	-0.16	
664.005	-0.16	
664.412	-0.18	
664.819	-0.16	
665.226	-0.16	
665.634	-0.16	
666.041	-0.18	
666.448	-0.17	
666.855	-0.17	
667.262	-0.18	
667.669	-0.14	
668.075	-0.14	
668.482	-0.17	
668.889	-0.15	
669.296	-0.15	
669.702	-0.14	
670.109	-0.18	
670.515	-0.16	
670.922	-0.18	
671.328	-0.18	
671.734	-0.18	
672.141	-0.18	
672.547	-0.21	
672.953	-0.18	
673.359	-0.17	
673.765	-0.17	
674.171	-0.15	
674.577	-0.15	
674.983	-0.17	
675.389	-0.17	
675.795	-0.16	
676.201	-0.18	
676.606	-0.19	
677.012	-0.16	
677.417	-0.18	
677.823	-0.17	
678.228	-0.17	
678.634	-0.17	
679.039	-0.18	
679.444	-0.17	
679.849	-0.18	
680.255	-0.18	
680.66	-0.19	
681.065	-0.18	
681.47	-0.17	
681.875	-0.17	
682.28	-0.17	
682.684	-0.19	
683.089	-0.16	
683.494	-0.15	
683.899	-0.17	
684.303	-0.19	
684.708	-0.19	
685.112	-0.18	
685.517	-0.21	
685.921	-0.2	
686.325	-0.22	
686.729	-0.2	
687.134	-0.18	
687.538	-0.19	
687.942	-0.18	
688.346	-0.18	
688.75	-0.17	
689.154	-0.16	
689.558	-0.16	
689.961	-0.17	
690.365	-0.17	
690.769	-0.16	
691.173	-0.16	
691.576	-0.19	
691.98	-0.19	
692.383	-0.19	
692.786	-0.17	
693.19	-0.18	
693.593	-0.17	
693.996	-0.16	
694.399	-0.17	
694.803	-0.17	
695.206	-0.17	
695.609	-0.18	
696.012	-0.17	
696.414	-0.18	
696.817	-0.15	
697.22	-0.19	
697.623	-0.21	
698.025	-0.22	
698.428	-0.17	
698.831	-0.18	
699.233	-0.19	
699.636	-0.17	
700.038	-0.16	
700.44	-0.15	
700.842	-0.16	
701.245	-0.15	
701.647	-0.18	
702.049	-0.16	
702.451	-0.18	
702.853	-0.16	
703.255	-0.18	
703.657	-0.16	
704.058	-0.14	
704.46	-0.17	
704.862	-0.14	
705.264	-0.15	
705.665	-0.15	
706.067	-0.14	
706.468	-0.14	
706.869	-0.19	
707.271	-0.19	
707.672	-0.2	
708.073	-0.19	
708.474	-0.19	
708.876	-0.19	
709.277	-0.19	
709.678	-0.16	
710.079	-0.16	
710.479	-0.18	
710.88	-0.16	
711.281	-0.17	
711.682	-0.17	
712.082	-0.15	
712.483	-0.17	
712.883	-0.17	
713.284	-0.17	
713.684	-0.18	
714.085	-0.18	
714.485	-0.16	
714.885	-0.18	
715.285	-0.18	
715.686	-0.18	
716.086	-0.17	
716.486	-0.17	
716.886	-0.13	
717.285	-0.16	
717.685	-0.15	
718.085	-0.15	
718.485	-0.18	
718.884	-0.17	
719.284	-0.17	
719.684	-0.17	
720.083	-0.19	
720.483	-0.16	
720.882	-0.15	
721.281	-0.17	
721.68	-0.16	
722.08	-0.16	
722.479	-0.17	
722.878	-0.14	
723.277	-0.15	
723.676	-0.16	
724.075	-0.14	
724.474	-0.15	
724.872	-0.15	
725.271	-0.17	
725.67	-0.17	
726.068	-0.19	
726.467	-0.17	
726.865	-0.18	
727.264	-0.17	
727.662	-0.17	
728.061	-0.17	
728.459	-0.18	
728.857	-0.16	
729.255	-0.16	
729.653	-0.18	
730.051	-0.17	
730.449	-0.18	
730.847	-0.19	
731.245	-0.2	
731.643	-0.19	
732.041	-0.2	
732.438	-0.17	
732.836	-0.17	
733.233	-0.19	
733.631	-0.2	
734.028	-0.19	
734.426	-0.2	
734.823	-0.2	
735.22	-0.19	
735.617	-0.18	
736.015	-0.18	
736.412	-0.19	
736.809	-0.18	
737.206	-0.17	
737.603	-0.18	
737.999	-0.18	
738.396	-0.18	
738.793	-0.17	
739.19	-0.21	
739.586	-0.21	
739.983	-0.19	
740.379	-0.18	
740.776	-0.18	
741.172	-0.18	
741.568	-0.15	
741.965	-0.15	
742.361	-0.15	
742.757	-0.2	
743.153	-0.17	
743.549	-0.14	
743.945	-0.14	
744.341	-0.15	
744.737	-0.12	
745.133	-0.14	
745.528	-0.13	
745.924	-0.12	
746.32	-0.12	
746.715	-0.15	
747.111	-0.12	
747.506	-0.13	
747.901	-0.12	
748.297	-0.12	
748.692	-0.14	
749.087	-0.09	
749.482	-0.13	
749.877	-0.13	
750.272	-0.14	
750.667	-0.14	
751.062	-0.16	
751.457	-0.15	
751.852	-0.14	
752.247	-0.14	
752.641	-0.14	
753.036	-0.16	
753.43	-0.12	
753.825	-0.16	
754.219	-0.13	
754.614	-0.16	
755.008	-0.15	
755.402	-0.16	
755.796	-0.15	
756.19	-0.12	
756.584	-0.14	
756.978	-0.16	
757.372	-0.2	
757.766	-0.2	
758.16	-0.2	
758.554	-0.18	
758.948	-0.17	
759.341	-0.16	
759.735	-0.16	
760.128	-0.17	
760.522	-0.17	
760.915	-0.18	
761.308	-0.17	
761.702	-0.17	
762.095	-0.16	
762.488	-0.16	
762.881	-0.14	
763.274	-0.15	
763.667	-0.15	
764.06	-0.13	
764.453	-0.17	
764.846	-0.17	
765.239	-0.18	
765.631	-0.18	
766.024	-0.17	
766.416	-0.16	
766.809	-0.17	
767.201	-0.13	
767.594	-0.14	
767.986	-0.13	
768.378	-0.16	
768.77	-0.15	
769.163	-0.16	
769.555	-0.17	
769.947	-0.14	
770.339	-0.13	
770.73	-0.12	
771.122	-0.14	
771.514	-0.15	
771.906	-0.14	
772.297	-0.15	
772.689	-0.14	
773.081	-0.14	
773.472	-0.12	
773.863	-0.14	
774.255	-0.11	
774.646	-0.14	
775.037	-0.13	
775.428	-0.1	
775.82	-0.14	
776.211	-0.11	
776.602	-0.12	
776.993	-0.11	
777.383	-0.14	
777.774	-0.14	
778.165	-0.12	
778.556	-0.12	
778.946	-0.12	
779.337	-0.15	
779.727	-0.1	
780.118	-0.11	
780.508	-0.12	
780.898	-0.1	
781.289	-0.13	
781.679	-0.15	
782.069	-0.14	
782.459	-0.17	
782.849	-0.15	
783.239	-0.14	
783.629	-0.12	
784.019	-0.14	
784.408	-0.13	
784.798	-0.11	
785.188	-0.12	
785.577	-0.14	
785.967	-0.15	
786.356	-0.16	
786.746	-0.13	
787.135	-0.13	
787.524	-0.15	
787.914	-0.13	
788.303	-0.16	
788.692	-0.13	
789.081	-0.14	
789.47	-0.15	
789.859	-0.14	
790.248	-0.11	
790.636	-0.14	
791.025	-0.13	
791.414	-0.11	
791.802	-0.13	
792.191	-0.13	
792.579	-0.13	
792.968	-0.15	
793.356	-0.13	
793.744	-0.17	
794.133	-0.17	
794.521	-0.18	
794.909	-0.19	
795.297	-0.17	
795.685	-0.14	
796.073	-0.16	
796.461	-0.12	
796.848	-0.12	
797.236	-0.13	
797.624	-0.11	
798.011	-0.11	
798.399	-0.11	
798.787	-0.1	
799.174	-0.12	
799.561	-0.14	
799.949	-0.1	
800.336	-0.1	
800.723	-0.12	
801.11	-0.1	
801.497	-0.07	
801.884	-0.12	
802.271	-0.1	
802.658	-0.13	
803.045	-0.13	
803.432	-0.11	
803.818	-0.12	
804.205	-0.12	
804.591	-0.1	
804.978	-0.11	
805.364	-0.11	
805.751	-0.12	
806.137	-0.1	
806.523	-0.15	
806.91	-0.14	
807.296	-0.11	
807.682	-0.13	
808.068	-0.15	
808.454	-0.16	
808.84	-0.11	
809.225	-0.11	
809.611	-0.1	
809.997	-0.11	
810.382	-0.1	
810.768	-0.12	
811.153	-0.14	
811.539	-0.09	
811.924	-0.1	
812.31	-0.08	
812.695	-0.06	
813.08	-0.11	
813.465	-0.11	
813.85	-0.16	
814.235	-0.15	
814.62	-0.13	
815.005	-0.1	
815.39	-0.11	
815.775	-0.11	
816.159	-0.11	
816.544	-0.12	
816.929	-0.14	
817.313	-0.09	
817.697	-0.13	
818.082	-0.1	
818.466	-0.12	
818.85	-0.14	
819.235	-0.09	
819.619	-0.08	
820.003	-0.1	
820.387	-0.1	
820.771	-0.13	
821.155	-0.15	
821.538	-0.12	
821.922	-0.1	
822.306	-0.13	
822.689	-0.1	
823.073	-0.12	
823.457	-0.13	
823.84	-0.13	
824.223	-0.1	
824.607	-0.13	
824.99	-0.08	
825.373	-0.11	
825.756	-0.12	
826.139	-0.12	
826.522	-0.15	
826.905	-0.12	
827.288	-0.14	
827.671	-0.17	
828.054	-0.15	
828.436	-0.14	
828.819	-0.13	
829.201	-0.12	
829.584	-0.12	
829.966	-0.1	
830.349	-0.11	
830.731	-0.08	
831.113	-0.1	
831.495	-0.09	
831.878	-0.1	
832.26	-0.11	
832.642	-0.12	
833.024	-0.1	
833.405	-0.11	
833.787	-0.09	
834.169	-0.12	
834.551	-0.11	
834.932	-0.12	
835.314	-0.09	
835.695	-0.1	
836.077	-0.11	
836.458	-0.09	
836.839	-0.15	
837.22	-0.09	
837.602	-0.12	
837.983	-0.11	
838.364	-0.09	
838.745	-0.09	
839.126	-0.11	
839.506	-0.08	
839.887	-0.08	
840.268	-0.11	
840.649	-0.08	
841.029	-0.13	
841.41	-0.1	
841.79	-0.12	
842.171	-0.09	
842.551	-0.12	
842.931	-0.12	
843.311	-0.12	
843.691	-0.1	
844.072	-0.09	
844.452	-0.1	
844.832	-0.07	
845.211	-0.07	
845.591	-0.08	
845.971	-0.07	
846.351	-0.1	
846.73	-0.08	
847.11	-0.11	
847.489	-0.12	
847.869	-0.09	
848.248	-0.07	
848.627	-0.09	
849.007	-0.09	
849.386	-0.09	
849.765	-0.11	
850.144	-0.11	
850.523	-0.09	
850.902	-0.1	
851.281	-0.11	
851.66	-0.06	
852.038	-0.08	
852.417	-0.1	
852.796	-0.11	
853.174	-0.11	
853.553	-0.1	
853.931	-0.1	
854.309	-0.13	
854.688	-0.09	
855.066	-0.14	
855.444	-0.08	
855.822	-0.08	
856.2	-0.11	
856.578	-0.14	
856.956	-0.11	
857.334	-0.1	
857.712	-0.15	
858.089	-0.13	
858.467	-0.09	
858.844	-0.1	
859.222	-0.09	
859.599	-0.12	
859.977	-0.07	
860.354	-0.07	
860.731	-0.1	
861.109	-0.11	
861.486	-0.13	
861.863	-0.11	
862.24	-0.14	
862.617	-0.11	
862.993	-0.07	
863.37	-0.12	
863.747	-0.12	
864.124	-0.11	
864.5	-0.08	
864.877	-0.11	
865.253	-0.05	
865.63	-0.12	
866.006	-0.08	
866.382	-0.1	
866.758	-0.1	
867.135	-0.07	
867.511	-0.1	
867.887	-0.09	
868.263	-0.11	
868.639	-0.06	
869.014	-0.09	
869.39	-0.11	
869.766	-0.11	
870.141	-0.04	
870.517	-0.1	
870.892	-0.08	
871.268	-0.09	
871.643	-0.06	
872.019	-0.13	
872.394	-0.1	
872.769	-0.12	
873.144	-0.06	
873.519	-0.07	
873.894	-0.11	
874.269	-0.09	
874.644	-0.12	
875.019	-0.15	
875.393	-0.1	
875.768	-0.07	
876.143	-0.07	
876.517	-0.12	
876.891	-0.07	
877.266	-0.09	
877.64	-0.06	
878.014	-0.1	
878.389	-0.06	
878.763	-0.04	
879.137	-0.1	
879.511	-0.06	
879.885	-0.06	
880.259	-0.06	
880.632	-0.06	
881.006	-0.13	
881.38	-0.07	
881.753	-0.05	
882.127	-0.07	
882.5	-0.08	
882.874	-0.05	
883.247	-0.08	
883.62	-0.07	
883.994	-0.06	
884.367	-0.06	
884.74	-0.06	
885.113	-0.06	
885.486	-0.11	
885.859	-0.06	
886.231	-0.07	
886.604	-0.09	
886.977	-0.03	
887.349	-0.06	
887.722	-0.01	
888.094	-0.05	
888.467	-0.04	
888.839	-0.08	
889.211	-0.07	
889.584	-0	
889.956	-0.07	
890.328	-0.05	
890.7	0	
891.072	-0.03	
891.444	-0.01	
891.816	-0.05	
892.187	-0.01	
892.559	-0.04	
892.931	-0.06	
893.302	-0.04	
893.674	-0.01	
894.045	-0.04	
894.416	-0.02	
894.788	0.02	
895.159	-0.07	
895.53	0.01	
895.901	-0.01	
896.272	-0.02	
896.643	-0.04	
897.014	-0.05	
897.385	-0.01	
897.756	-0.01	
898.126	-0.03	
898.497	-0.01	
898.867	0.06	
899.238	-0.03	
899.608	-0.07	
899.979	-0.01	
900.349	-0.01	
900.719	0.01	
901.089	-0.05	
901.459	-0.04	
901.829	-0.04	
902.199	0.05	
902.569	0.02	
902.939	0	
903.309	-0.02	
903.679	0.03	
904.048	-0.06	
904.418	-0.02	
904.787	0	
905.157	0.01	
905.526	0.06	
905.895	-0.05	
906.265	-0.01	
906.634	-0.04	
907.003	0.01	
907.372	0.03	
907.741	0.03	
908.11	0.06	
908.478	0.03	
908.847	0.03	
909.216	-0.01	
909.585	0.03	
909.953	-0	
910.322	0.04	
910.69	0.08	
911.058	-0.03	
911.427	0.05	
911.795	0.14	
912.163	-0.04	
912.531	-0.03	
912.899	0.03	
913.267	0.04	
913.635	0.02	
914.003	0.08	
914.37	-0.01	
914.738	0.01	
915.106	0.03	
915.473	0.03	
915.841	0.04	
916.208	0.09	
916.575	0.01	
916.943	-0.03	
917.31	-0	
917.677	0.07	
918.044	-0	
918.411	-0.05	
918.778	0.08	
919.145	0.01	
919.512	0.02	
919.879	0.04	
920.245	-0.01	
920.612	0.11	
920.978	0.06	
921.345	-0.01	
921.711	0.08	
922.078	0.05	
922.444	-0.04	
922.81	0.1	
923.176	-0.02	
923.542	-0.03	
923.908	0.13	
924.274	0.01	
924.64	0.08	
925.006	0.01	
925.371	-0.01	
925.737	-0.02	
926.103	0.09	
926.468	0.14	
926.834	0.06	
927.199	0.08	
927.564	0.16	
927.93	0.08	
928.295	0.07	
928.66	0.01	
929.025	0.05	
929.39	0.07	
929.755	0.1	
930.12	0.01	
930.484	0.07	
930.849	0.08	
931.214	-0.14	
931.578	-0.02	
931.943	0.01	
932.307	0.15	
932.672	0.03	
933.036	-0.01	
933.4	0.18	
933.764	0.08	
934.128	0.1	
934.492	0.16	
934.856	-0.01	
935.22	0.06	
935.584	0.03	
935.948	0.08	
936.311	0.06	
936.675	0.11	
937.039	0.16	
937.402	-0.25	
937.765	0	
938.129	0.13	
938.492	0.03	
938.855	0.02	
939.218	-0	
939.581	0.18	
939.944	-0.03	
940.307	-0.07	
940.67	0.05	
941.033	0.1	
941.396	-0.06	
941.758	0.06	
942.121	-0.02	
942.483	0.07	
942.846	-0.02	
943.208	-0.07	
943.571	0.05	
943.933	0.03	
944.295	0.1	
944.657	-0.07	
945.019	0.03	
945.381	0.11	
945.743	0.02	
946.105	0.18	
946.467	0.05	
946.828	0.27	
947.19	0.25	
947.551	-0.32	
947.913	-0.05	
948.274	-0.13	
948.636	0.03	
948.997	0.07	
949.358	0.14	
949.719	-0.09	
950.08	0.23	
950.441	0.04	
950.802	0.01	
951.163	-0.01	
951.524	-0.15	
951.885	-0.04	
952.245	0.31	
952.606	0.25	
952.966	-0.24	
953.327	0.13	
953.687	0.02	
954.047	-0.07	
954.408	-0.65	
954.768	-0.01	
955.128	0.15	
955.488	-0.04	
955.848	0.04	
956.208	-0.16	
956.568	0.14	
956.927	-0.16	
957.287	0.07	
957.647	0.08	
958.006	-0.06	
958.366	-0.05	
958.725	0.03	
959.084	0.01	
959.444	-0.18	
959.803	0.05	
960.162	-0.04	
960.521	0.02	
960.88	0.4	
961.239	-0.07	
961.598	0.35	
961.957	0.11	
962.315	0.15	
962.674	0.4	
963.033	0.06	
963.391	0.07	
963.75	-0.04	
964.108	0.23	
964.466	-0.04	
964.824	-0.15	
965.183	0.14	
965.541	-0.68	
965.899	0.11	
966.257	-0.25	
966.614	0.02	
966.972	0.12	
967.33	0.12	
967.688	0.06	
968.045	0.21	
968.403	-0	
968.76	0.59	
969.118	0.2	
969.475	0.17	
969.832	0.15	
970.189	0.11	
970.546	-0.16	
970.903	-0.27	
971.26	-0.75	
971.617	0.19	
971.974	-0.32	
972.331	0.22	
972.688	-0.17	
973.044	-0.22	
973.401	0.48	
973.757	-0.16	
974.114	0.08	
974.47	-1.24	
974.826	0.41	
975.182	-0.02	
975.538	-0.01	
975.895	-0.22	
976.251	-0	
976.606	0.1	
976.962	-0	
977.318	-0.45	
977.674	-0.2	
978.029	-0.15	
978.385	-0.01	
978.74	0.78	
979.096	-0.03	
979.451	-0	
979.806	-0.16	
980.162	0.35	
980.517	-0.21	
980.872	-0	
981.227	-0.78	
981.582	0.03	
981.937	-0.1	
982.291	0.22	
982.646	0.08	
983.001	0.1	
983.355	0.1	
983.71	-0.2	
984.064	-0.27	
984.419	-0.03	
984.773	0.61	
985.127	1.39	
985.481	0.36	
985.835	-0.02	
986.189	-0	
986.543	-0.16	
986.897	-0.22	
987.251	-0	
987.605	-0.58	
987.958	0.13	
988.312	-0.06	
988.665	-0.05	
989.019	-0.85	
989.372	0.11	
989.725	-0.49	
990.079	-0.32	
990.432	0.23	
990.785	-0.3	
991.138	-0	
991.491	0.52	
991.844	-0.38	
992.197	-0.55	
992.549	0.42	
992.902	-0.41	
993.254	0.25	
993.607	-0	
993.959	-0.14	
994.312	-0	
994.664	-0.19	
995.016	0.64	
995.368	0.03	
995.721	-0.13	
996.073	-0.12	
996.425	-0.49	
996.776	0.03	
997.128	-0.06	
997.48	-0.3	
997.832	0.68	
998.183	-0	
998.535	-0	
998.886	-0.18	
999.237	-0.21	
999.589	-0.09	
999.94	0.21	
1000.291	-0.52	
1000.642	-0.08	
1000.993	0.61	
1001.344	-0.51	
1001.695	0.03	
1002.046	-0.33	
1002.397	-0.41	
1002.747	-0.32	
1003.098	-0	
1003.448	0.27	
1003.799	0.14	
1004.149	-0.34	
1004.499	0.09	
1004.85	0.09	
1005.2	-0.34	
1005.55	0.16	
1005.9	-0.06	
1006.25	-0.09	
1006.6	-0	
1006.949	0.12	
1007.299	-0.28	
1007.649	-0.21	
1007.998	-0.8	
1008.348	-0	
1008.697	0.06	
1009.047	0.2	
1009.396	-0.13	
1009.745	0.78	
1010.094	0.07	
1010.443	-0.45	
1010.792	-0.25	
1011.141	0.03	
1011.49	-0.45	
1011.839	0.23	
1012.188	0.2	
1012.536	0.41	
1012.885	-0	
1013.233	-0.06	
1013.582	-0.7	
1013.93	0.1	
1014.278	-0.48	
1014.627	0.29	
1014.975	-0.18	
1015.323	-0	
1015.671	-0	
1016.019	-0	
1016.367	-0	
1016.714	0.98	
1017.062	0.28	
1017.41	0.22	
1017.757	-0.05	
1018.105	-0	
1018.452	-0	
1018.8	-0	
1019.147	-0	
1019.494	-0	
1019.841	0.04	
1020.188	-0.47	
1020.535	0.67	
1020.882	-0.19	
1021.229	0.99	
1021.576	-0.69	
1021.922	-0.1	
1022.269	-0	
1022.615	-0.15	
1022.962	-0.35	
1023.308	-0.35	
1023.655	-0.35	
