Absorbance:209		
188.012	-0.11	
188.47	-0.11	
188.927	-0.11	
189.385	0.11	
189.842	0.34	
190.3	-0	
190.757	0.99	
191.215	1.01	
191.672	-0	
192.129	0.42	
192.586	-0	
193.044	0.65	
193.501	-0.1	
193.958	-0	
194.415	-0.94	
194.872	-0	
195.329	-1.36	
195.787	0.32	
196.244	-0	
196.7	-0	
197.157	-0.89	
197.614	0.25	
198.071	-0.28	
198.528	-0	
198.985	0.34	
199.441	0.82	
199.898	0.49	
200.355	0.47	
200.812	0.38	
201.268	0.43	
201.725	0.63	
202.181	0.78	
202.638	0.49	
203.094	0.3	
203.551	0.35	
204.007	0.33	
204.463	0.22	
204.92	0.31	
205.376	0.35	
205.832	0.27	
206.288	0.32	
206.744	0.41	
207.201	0.78	
207.657	0.41	
208.113	0.26	
208.569	0.33	
209.025	0.11	
209.481	0.41	
209.937	0.33	
210.392	0.38	
210.848	0.47	
211.304	0.6	
211.76	0.48	
212.215	0.53	
212.671	0.56	
213.127	0.54	
213.582	0.61	
214.038	0.55	
214.494	0.69	
214.949	0.83	
215.404	0.77	
215.86	1.22	
216.315	1.07	
216.771	1.2	
217.226	1.23	
217.681	1.21	
218.136	1.15	
218.592	1.23	
219.047	1.59	
219.502	1.5	
219.957	1.58	
220.412	1.27	
220.867	1.62	
221.322	1.88	
221.777	1.7	
222.232	1.75	
222.687	1.86	
223.142	1.97	
223.596	2.65	
224.051	1.99	
224.506	1.83	
224.96	1.69	
225.415	2.22	
225.87	2.07	
226.324	-0	
226.779	2	
227.233	2.16	
227.688	2.17	
228.142	2.06	
228.597	1.93	
229.051	2.27	
229.505	2.13	
229.959	2.17	
230.414	2.36	
230.868	1.97	
231.322	2.04	
231.776	2.64	
232.23	2.02	
232.684	2.48	
233.138	2.08	
233.592	2.93	
234.046	2.31	
234.5	2.25	
234.954	2.32	
235.408	2.56	
235.861	2.43	
236.315	2.37	
236.769	2.25	
237.222	2.15	
237.676	2.12	
238.13	2.41	
238.583	2.48	
239.037	2.3	
239.49	2.44	
239.944	2.47	
240.397	1.91	
240.85	2.21	
241.304	2.03	
241.757	2.03	
242.21	2.11	
242.663	2.19	
243.117	2.57	
243.57	1.91	
244.023	2.07	
244.476	2.1	
244.929	2.48	
245.382	2.09	
245.835	2.18	
246.288	2.08	
246.741	2.15	
247.193	2.32	
247.646	2.2	
248.099	2.54	
248.552	2.11	
249.004	2.1	
249.457	2.34	
249.909	2.76	
250.362	2.2	
250.814	2.5	
251.267	2.26	
251.719	2.31	
252.172	2.25	
252.624	2.3	
253.076	2.22	
253.529	2.19	
253.981	2.23	
254.433	2.01	
254.885	2.24	
255.337	2.3	
255.79	2.09	
256.242	2.54	
256.694	2.29	
257.146	2.07	
257.598	2.27	
258.049	2.37	
258.501	2.18	
258.953	2.21	
259.405	2.28	
259.857	2.16	
260.308	2.5	
260.76	2.38	
261.212	2.35	
261.663	2.22	
262.115	2.22	
262.566	2.39	
263.018	2.36	
263.469	2.44	
263.92	2.47	
264.372	2.52	
264.823	2.59	
265.274	2.46	
265.726	2.1	
266.177	2.33	
266.628	2.24	
267.079	2.04	
267.53	2.22	
267.981	2.27	
268.432	3.07	
268.883	2.14	
269.334	2.56	
269.785	2.09	
270.236	2.21	
270.687	2.18	
271.137	2.22	
271.588	2.13	
272.039	2.49	
272.489	2.26	
272.94	2.28	
273.391	2.06	
273.841	2.45	
274.292	2.05	
274.742	2.02	
275.192	2.14	
275.643	2.27	
276.093	2.1	
276.543	2.24	
276.994	2.38	
277.444	2.18	
277.894	2.16	
278.344	2.11	
278.794	1.99	
279.244	2.13	
279.694	2.08	
280.144	2.05	
280.594	2.17	
281.044	2	
281.494	2.62	
281.944	2.09	
282.394	2.19	
282.843	2.03	
283.293	2.08	
283.743	2.08	
284.192	1.95	
284.642	2.03	
285.091	2	
285.541	1.79	
285.99	1.95	
286.44	1.98	
286.889	1.79	
287.338	1.83	
287.788	1.73	
288.237	1.66	
288.686	1.61	
289.135	1.55	
289.584	1.57	
290.034	1.44	
290.483	1.41	
290.932	1.39	
291.381	1.34	
291.83	1.24	
292.278	1.19	
292.727	1.15	
293.176	1.11	
293.625	1.04	
294.074	1.01	
294.522	0.96	
294.971	0.9	
295.42	0.88	
295.868	0.83	
296.317	0.77	
296.765	0.73	
297.214	0.69	
297.662	0.65	
298.11	0.61	
298.559	0.57	
299.007	0.54	
299.455	0.51	
299.903	0.47	
300.352	0.45	
300.8	0.41	
301.248	0.4	
301.696	0.36	
302.144	0.33	
302.592	0.3	
303.04	0.29	
303.488	0.26	
303.936	0.23	
304.383	0.21	
304.831	0.19	
305.279	0.17	
305.727	0.15	
306.174	0.13	
306.622	0.12	
307.069	0.1	
307.517	0.08	
307.964	0.07	
308.412	0.05	
308.859	0.04	
309.306	0.02	
309.754	0	
310.201	-0.01	
310.648	-0.02	
311.096	-0.02	
311.543	-0.03	
311.99	-0.04	
312.437	-0.07	
312.884	-0.07	
313.331	-0.07	
313.778	-0.09	
314.225	-0.09	
314.672	-0.1	
315.118	-0.1	
315.565	-0.11	
316.012	-0.12	
316.459	-0.13	
316.905	-0.14	
317.352	-0.14	
317.798	-0.15	
318.245	-0.15	
318.691	-0.16	
319.138	-0.16	
319.584	-0.17	
320.031	-0.17	
320.477	-0.18	
320.923	-0.18	
321.37	-0.19	
321.816	-0.19	
322.262	-0.19	
322.708	-0.19	
323.154	-0.19	
323.6	-0.19	
324.046	-0.19	
324.492	-0.2	
324.938	-0.2	
325.384	-0.21	
325.83	-0.21	
326.276	-0.22	
326.721	-0.21	
327.167	-0.22	
327.613	-0.22	
328.058	-0.22	
328.504	-0.22	
328.949	-0.23	
329.395	-0.22	
329.84	-0.24	
330.286	-0.24	
330.731	-0.23	
331.177	-0.23	
331.622	-0.23	
332.067	-0.24	
332.512	-0.24	
332.957	-0.24	
333.403	-0.24	
333.848	-0.24	
334.293	-0.24	
334.738	-0.25	
335.183	-0.25	
335.628	-0.24	
336.072	-0.24	
336.517	-0.26	
336.962	-0.24	
337.407	-0.25	
337.852	-0.26	
338.296	-0.24	
338.741	-0.26	
339.185	-0.25	
339.63	-0.26	
340.074	-0.25	
340.519	-0.25	
340.963	-0.25	
341.408	-0.26	
341.852	-0.25	
342.296	-0.25	
342.741	-0.26	
343.185	-0.26	
343.629	-0.26	
344.073	-0.26	
344.517	-0.26	
344.961	-0.25	
345.405	-0.26	
345.849	-0.25	
346.293	-0.26	
346.737	-0.26	
347.181	-0.26	
347.624	-0.26	
348.068	-0.26	
348.512	-0.26	
348.955	-0.25	
349.399	-0.26	
349.843	-0.26	
350.286	-0.27	
350.73	-0.26	
351.173	-0.27	
351.617	-0.26	
352.06	-0.27	
352.503	-0.26	
352.946	-0.26	
353.39	-0.26	
353.833	-0.27	
354.276	-0.26	
354.719	-0.27	
355.162	-0.26	
355.605	-0.26	
356.048	-0.26	
356.491	-0.25	
356.934	-0.27	
357.377	-0.27	
357.82	-0.26	
358.262	-0.27	
358.705	-0.27	
359.148	-0.26	
359.59	-0.26	
360.033	-0.26	
360.475	-0.26	
360.918	-0.26	
361.36	-0.26	
361.803	-0.27	
362.245	-0.27	
362.688	-0.27	
363.13	-0.27	
363.572	-0.27	
364.014	-0.27	
364.456	-0.27	
364.899	-0.26	
365.341	-0.27	
365.783	-0.26	
366.225	-0.26	
366.667	-0.27	
367.108	-0.26	
367.55	-0.26	
367.992	-0.27	
368.434	-0.26	
368.876	-0.26	
369.317	-0.26	
369.759	-0.27	
370.201	-0.27	
370.642	-0.26	
371.084	-0.26	
371.525	-0.27	
371.966	-0.28	
372.408	-0.27	
372.849	-0.26	
373.29	-0.27	
373.732	-0.27	
374.173	-0.26	
374.614	-0.26	
375.055	-0.26	
375.496	-0.27	
375.937	-0.26	
376.378	-0.26	
376.819	-0.26	
377.26	-0.27	
377.701	-0.26	
378.142	-0.27	
378.583	-0.27	
379.023	-0.26	
379.464	-0.27	
379.905	-0.27	
380.345	-0.27	
380.786	-0.26	
381.226	-0.27	
381.667	-0.27	
382.107	-0.26	
382.548	-0.26	
382.988	-0.27	
383.428	-0.28	
383.868	-0.26	
384.309	-0.27	
384.749	-0.27	
385.189	-0.26	
385.629	-0.26	
386.069	-0.27	
386.509	-0.25	
386.949	-0.27	
387.389	-0.26	
387.829	-0.27	
388.268	-0.26	
388.708	-0.26	
389.148	-0.27	
389.588	-0.27	
390.027	-0.26	
390.467	-0.26	
390.906	-0.27	
391.346	-0.28	
391.785	-0.26	
392.225	-0.26	
392.664	-0.26	
393.103	-0.27	
393.543	-0.26	
393.982	-0.26	
394.421	-0.26	
394.86	-0.27	
395.299	-0.26	
395.738	-0.26	
396.177	-0.27	
396.616	-0.26	
397.055	-0.25	
397.494	-0.28	
397.933	-0.26	
398.372	-0.26	
398.81	-0.26	
399.249	-0.27	
399.688	-0.27	
400.126	-0.27	
400.565	-0.28	
401.004	-0.27	
401.442	-0.26	
401.88	-0.27	
402.319	-0.26	
402.757	-0.27	
403.195	-0.26	
403.634	-0.26	
404.072	-0.27	
404.51	-0.27	
404.948	-0.26	
405.386	-0.27	
405.824	-0.26	
406.262	-0.26	
406.7	-0.26	
407.138	-0.27	
407.576	-0.27	
408.014	-0.26	
408.452	-0.27	
408.889	-0.26	
409.327	-0.26	
409.765	-0.26	
410.202	-0.27	
410.64	-0.27	
411.077	-0.27	
411.515	-0.27	
411.952	-0.27	
412.389	-0.26	
412.827	-0.25	
413.264	-0.26	
413.701	-0.26	
414.138	-0.26	
414.575	-0.26	
415.013	-0.26	
415.45	-0.27	
415.887	-0.25	
416.324	-0.27	
416.76	-0.26	
417.197	-0.26	
417.634	-0.27	
418.071	-0.27	
418.508	-0.27	
418.944	-0.26	
419.381	-0.26	
419.818	-0.26	
420.254	-0.27	
420.691	-0.26	
421.127	-0.27	
421.563	-0.27	
422	-0.27	
422.436	-0.27	
422.872	-0.27	
423.309	-0.28	
423.745	-0.27	
424.181	-0.27	
424.617	-0.27	
425.053	-0.27	
425.489	-0.27	
425.925	-0.26	
426.361	-0.26	
426.797	-0.26	
427.233	-0.26	
427.668	-0.27	
428.104	-0.26	
428.54	-0.26	
428.975	-0.27	
429.411	-0.26	
429.847	-0.26	
430.282	-0.27	
430.717	-0.27	
431.153	-0.26	
431.588	-0.26	
432.024	-0.27	
432.459	-0.27	
432.894	-0.26	
433.329	-0.26	
433.764	-0.27	
434.199	-0.27	
434.634	-0.25	
435.069	-0.26	
435.504	-0.27	
435.939	-0.26	
436.374	-0.27	
436.809	-0.27	
437.244	-0.26	
437.678	-0.26	
438.113	-0.27	
438.548	-0.25	
438.982	-0.26	
439.417	-0.26	
439.851	-0.27	
440.286	-0.27	
440.72	-0.26	
441.154	-0.26	
441.589	-0.27	
442.023	-0.26	
442.457	-0.27	
442.891	-0.27	
443.326	-0.26	
443.76	-0.27	
444.194	-0.26	
444.628	-0.27	
445.062	-0.26	
445.495	-0.25	
445.929	-0.26	
446.363	-0.25	
446.797	-0.25	
447.23	-0.27	
447.664	-0.26	
448.098	-0.27	
448.531	-0.26	
448.965	-0.26	
449.398	-0.26	
449.832	-0.26	
450.265	-0.26	
450.698	-0.26	
451.132	-0.26	
451.565	-0.26	
451.998	-0.26	
452.431	-0.27	
452.864	-0.27	
453.297	-0.26	
453.73	-0.27	
454.163	-0.27	
454.596	-0.26	
455.029	-0.27	
455.462	-0.26	
455.895	-0.27	
456.327	-0.26	
456.76	-0.26	
457.193	-0.27	
457.625	-0.26	
458.058	-0.27	
458.49	-0.26	
458.923	-0.26	
459.355	-0.25	
459.787	-0.26	
460.22	-0.26	
460.652	-0.25	
461.084	-0.26	
461.516	-0.26	
461.948	-0.25	
462.381	-0.26	
462.813	-0.26	
463.245	-0.25	
463.676	-0.26	
464.108	-0.26	
464.54	-0.26	
464.972	-0.27	
465.404	-0.26	
465.835	-0.27	
466.267	-0.26	
466.699	-0.27	
467.13	-0.25	
467.562	-0.26	
467.993	-0.26	
468.424	-0.27	
468.856	-0.26	
469.287	-0.25	
469.718	-0.26	
470.15	-0.25	
470.581	-0.26	
471.012	-0.25	
471.443	-0.26	
471.874	-0.27	
472.305	-0.27	
472.736	-0.25	
473.167	-0.26	
473.598	-0.26	
474.028	-0.27	
474.459	-0.25	
474.89	-0.25	
475.32	-0.26	
475.751	-0.26	
476.182	-0.27	
476.612	-0.26	
477.043	-0.27	
477.473	-0.27	
477.903	-0.27	
478.334	-0.26	
478.764	-0.27	
479.194	-0.26	
479.624	-0.27	
480.054	-0.27	
480.484	-0.26	
480.914	-0.26	
481.344	-0.26	
481.774	-0.27	
482.204	-0.26	
482.634	-0.26	
483.064	-0.27	
483.494	-0.26	
483.923	-0.26	
484.353	-0.27	
484.782	-0.26	
485.212	-0.26	
485.642	-0.26	
486.071	-0.27	
486.5	-0.26	
486.93	-0.25	
487.359	-0.26	
487.788	-0.26	
488.217	-0.26	
488.647	-0.27	
489.076	-0.26	
489.505	-0.26	
489.934	-0.25	
490.363	-0.26	
490.792	-0.26	
491.221	-0.25	
491.649	-0.26	
492.078	-0.26	
492.507	-0.26	
492.936	-0.25	
493.364	-0.25	
493.793	-0.25	
494.221	-0.25	
494.65	-0.27	
495.078	-0.26	
495.507	-0.26	
495.935	-0.26	
496.363	-0.25	
496.791	-0.26	
497.22	-0.27	
497.648	-0.26	
498.076	-0.26	
498.504	-0.26	
498.932	-0.27	
499.36	-0.25	
499.788	-0.25	
500.216	-0.25	
500.643	-0.26	
501.071	-0.24	
501.499	-0.25	
501.927	-0.25	
502.354	-0.26	
502.782	-0.26	
503.209	-0.27	
503.637	-0.26	
504.064	-0.26	
504.491	-0.26	
504.919	-0.25	
505.346	-0.26	
505.773	-0.26	
506.2	-0.26	
506.628	-0.25	
507.055	-0.26	
507.482	-0.25	
507.909	-0.26	
508.335	-0.26	
508.762	-0.25	
509.189	-0.26	
509.616	-0.26	
510.043	-0.25	
510.469	-0.25	
510.896	-0.26	
511.323	-0.25	
511.749	-0.24	
512.176	-0.26	
512.602	-0.26	
513.028	-0.25	
513.455	-0.26	
513.881	-0.25	
514.307	-0.25	
514.733	-0.24	
515.16	-0.24	
515.586	-0.26	
516.012	-0.24	
516.438	-0.24	
516.864	-0.26	
517.29	-0.25	
517.715	-0.24	
518.141	-0.24	
518.567	-0.25	
518.993	-0.24	
519.418	-0.25	
519.844	-0.24	
520.269	-0.24	
520.695	-0.23	
521.12	-0.24	
521.546	-0.25	
521.971	-0.25	
522.396	-0.25	
522.822	-0.25	
523.247	-0.24	
523.672	-0.24	
524.097	-0.24	
524.522	-0.24	
524.947	-0.25	
525.372	-0.23	
525.797	-0.24	
526.222	-0.24	
526.647	-0.24	
527.071	-0.24	
527.496	-0.25	
527.921	-0.24	
528.345	-0.25	
528.77	-0.23	
529.194	-0.23	
529.619	-0.25	
530.043	-0.24	
530.468	-0.24	
530.892	-0.23	
531.316	-0.23	
531.74	-0.23	
532.164	-0.24	
532.589	-0.24	
533.013	-0.23	
533.437	-0.22	
533.861	-0.24	
534.284	-0.23	
534.708	-0.23	
535.132	-0.24	
535.556	-0.22	
535.98	-0.23	
536.403	-0.24	
536.827	-0.24	
537.25	-0.25	
537.674	-0.23	
538.097	-0.24	
538.521	-0.23	
538.944	-0.23	
539.367	-0.22	
539.791	-0.22	
540.214	-0.24	
540.637	-0.24	
541.06	-0.23	
541.483	-0.21	
541.906	-0.23	
542.329	-0.22	
542.752	-0.23	
543.175	-0.24	
543.598	-0.22	
544.02	-0.21	
544.443	-0.21	
544.866	-0.22	
545.288	-0.22	
545.711	-0.23	
546.133	-0.22	
546.556	-0.21	
546.978	-0.22	
547.4	-0.21	
547.823	-0.24	
548.245	-0.22	
548.667	-0.22	
549.089	-0.21	
549.511	-0.22	
549.933	-0.21	
550.355	-0.22	
550.777	-0.21	
551.199	-0.22	
551.621	-0.21	
552.043	-0.22	
552.465	-0.21	
552.886	-0.21	
553.308	-0.2	
553.729	-0.23	
554.151	-0.22	
554.572	-0.2	
554.994	-0.22	
555.415	-0.21	
555.837	-0.23	
556.258	-0.21	
556.679	-0.21	
557.1	-0.22	
557.521	-0.19	
557.942	-0.2	
558.363	-0.2	
558.784	-0.2	
559.205	-0.21	
559.626	-0.18	
560.047	-0.2	
560.468	-0.2	
560.888	-0.2	
561.309	-0.22	
561.73	-0.22	
562.15	-0.2	
562.571	-0.21	
562.991	-0.19	
563.412	-0.21	
563.832	-0.19	
564.252	-0.19	
564.673	-0.19	
565.093	-0.19	
565.513	-0.2	
565.933	-0.19	
566.353	-0.19	
566.773	-0.19	
567.193	-0.19	
567.613	-0.18	
568.033	-0.19	
568.452	-0.19	
568.872	-0.19	
569.292	-0.2	
569.711	-0.2	
570.131	-0.19	
570.551	-0.18	
570.97	-0.19	
571.389	-0.2	
571.809	-0.2	
572.228	-0.2	
572.647	-0.19	
573.067	-0.19	
573.486	-0.19	
573.905	-0.19	
574.324	-0.19	
574.743	-0.19	
575.162	-0.19	
575.581	-0.2	
576	-0.19	
576.419	-0.2	
576.837	-0.18	
577.256	-0.18	
577.675	-0.18	
578.093	-0.19	
578.512	-0.18	
578.93	-0.19	
579.349	-0.19	
579.767	-0.18	
580.185	-0.18	
580.604	-0.18	
581.022	-0.17	
581.44	-0.18	
581.858	-0.19	
582.276	-0.18	
582.694	-0.19	
583.112	-0.18	
583.53	-0.17	
583.948	-0.17	
584.366	-0.16	
584.784	-0.16	
585.201	-0.17	
585.619	-0.16	
586.037	-0.17	
586.454	-0.17	
586.872	-0.17	
587.289	-0.16	
587.707	-0.15	
588.124	-0.15	
588.541	-0.16	
588.958	-0.15	
589.376	-0.15	
589.793	-0.15	
590.21	-0.13	
590.627	-0.14	
591.044	-0.14	
591.461	-0.13	
591.878	-0.15	
592.294	-0.12	
592.711	-0.14	
593.128	-0.13	
593.545	-0.14	
593.961	-0.14	
594.378	-0.13	
594.794	-0.14	
595.211	-0.14	
595.627	-0.12	
596.043	-0.11	
596.46	-0.12	
596.876	-0.12	
597.292	-0.12	
597.708	-0.12	
598.124	-0.11	
598.54	-0.12	
598.956	-0.11	
599.372	-0.12	
599.788	-0.12	
600.204	-0.13	
600.62	-0.11	
601.035	-0.11	
601.451	-0.11	
601.867	-0.1	
602.282	-0.1	
602.698	-0.1	
603.113	-0.1	
603.529	-0.08	
603.944	-0.1	
604.359	-0.07	
604.774	-0.09	
605.19	-0.09	
605.605	-0.09	
606.02	-0.07	
606.435	-0.08	
606.85	-0.08	
607.265	-0.09	
607.68	-0.09	
608.094	-0.08	
608.509	-0.09	
608.924	-0.08	
609.338	-0.06	
609.753	-0.08	
610.168	-0.06	
610.582	-0.05	
610.997	-0.03	
611.411	-0.05	
611.825	-0.04	
612.24	-0.04	
612.654	-0.05	
613.068	-0.03	
613.482	-0.03	
613.896	-0.03	
614.31	-0.03	
614.724	-0.03	
615.138	-0.05	
615.552	-0.05	
615.966	-0.03	
616.379	-0.01	
616.793	-0.03	
617.207	-0.02	
617.62	-0.01	
618.034	0.02	
618.447	-0	
618.861	0.01	
619.274	0.01	
619.687	0.02	
620.101	0.02	
620.514	0.01	
620.927	0.01	
621.34	0.02	
621.753	0.03	
622.166	0.02	
622.579	0.04	
622.992	0.02	
623.405	0.04	
623.817	0.04	
624.23	0.04	
624.643	0.04	
625.055	0.03	
625.468	0.04	
625.88	0.05	
626.293	0.06	
626.705	0.06	
627.118	0.07	
627.53	0.06	
627.942	0.07	
628.354	0.08	
628.766	0.09	
629.179	0.08	
629.591	0.07	
630.003	0.08	
630.414	0.1	
630.826	0.1	
631.238	0.09	
631.65	0.09	
632.061	0.12	
632.473	0.12	
632.885	0.14	
633.296	0.13	
633.708	0.15	
634.119	0.14	
634.53	0.14	
634.942	0.17	
635.353	0.15	
635.764	0.17	
636.175	0.17	
636.586	0.16	
636.998	0.15	
637.408	0.15	
637.819	0.18	
638.23	0.17	
638.641	0.17	
639.052	0.19	
639.463	0.17	
639.873	0.17	
640.284	0.21	
640.694	0.2	
641.105	0.21	
641.515	0.22	
641.926	0.22	
642.336	0.22	
642.746	0.18	
643.157	0.2	
643.567	0.27	
643.977	0.24	
644.387	0.23	
644.797	0.25	
645.207	0.25	
645.617	0.26	
646.026	0.26	
646.436	0.25	
646.846	0.26	
647.256	0.27	
647.665	0.28	
648.075	0.28	
648.484	0.3	
648.894	0.3	
649.303	0.28	
649.713	0.27	
650.122	0.27	
650.531	0.28	
650.94	0.29	
651.349	0.31	
651.758	0.28	
652.167	0.3	
652.576	0.29	
652.985	0.31	
653.394	0.32	
653.803	0.35	
654.212	0.36	
654.62	0.35	
655.029	0.35	
655.437	0.36	
655.846	0.32	
656.254	0.29	
656.663	0.27	
657.071	0.26	
657.479	0.29	
657.888	0.27	
658.296	0.31	
658.704	0.33	
659.112	0.34	
659.52	0.35	
659.928	0.37	
660.336	0.38	
660.744	0.39	
661.152	0.44	
661.559	0.41	
661.967	0.45	
662.375	0.47	
662.782	0.42	
663.19	0.43	
663.597	0.47	
664.005	0.43	
664.412	0.49	
664.819	0.5	
665.226	0.48	
665.634	0.49	
666.041	0.47	
666.448	0.51	
666.855	0.5	
667.262	0.44	
667.669	0.51	
668.075	0.49	
668.482	0.52	
668.889	0.51	
669.296	0.52	
669.702	0.57	
670.109	0.49	
670.515	0.51	
670.922	0.53	
671.328	0.49	
671.734	0.57	
672.141	0.53	
672.547	0.5	
672.953	0.52	
673.359	0.56	
673.765	0.54	
674.171	0.55	
674.577	0.57	
674.983	0.59	
675.389	0.56	
675.795	0.57	
676.201	0.58	
676.606	0.6	
677.012	0.6	
677.417	0.58	
677.823	0.6	
678.228	0.57	
678.634	0.65	
679.039	0.59	
679.444	0.62	
679.849	0.61	
680.255	0.62	
680.66	0.61	
681.065	0.64	
681.47	0.67	
681.875	0.66	
682.28	0.63	
682.684	0.65	
683.089	0.64	
683.494	0.65	
683.899	0.7	
684.303	0.65	
684.708	0.7	
685.112	0.65	
685.517	0.71	
685.921	0.67	
686.325	0.69	
686.729	0.66	
687.134	0.68	
687.538	0.72	
687.942	0.7	
688.346	0.74	
688.75	0.75	
689.154	0.75	
689.558	0.79	
689.961	0.73	
690.365	0.74	
690.769	0.78	
691.173	0.68	
691.576	0.77	
691.98	0.75	
692.383	0.72	
692.786	0.8	
693.19	0.81	
693.593	0.81	
693.996	0.8	
694.399	0.83	
694.803	0.77	
695.206	0.85	
695.609	0.9	
696.012	0.85	
696.414	0.79	
696.817	0.87	
697.22	0.84	
697.623	0.81	
698.025	0.87	
698.428	0.8	
698.831	0.83	
699.233	0.84	
699.636	0.8	
700.038	0.81	
700.44	0.82	
700.842	0.86	
701.245	1.04	
701.647	0.97	
702.049	0.88	
702.451	0.85	
702.853	0.94	
703.255	0.89	
703.657	1	
704.058	0.91	
704.46	0.87	
704.862	0.91	
705.264	0.9	
705.665	0.93	
706.067	1.02	
706.468	0.87	
706.869	0.94	
707.271	1	
707.672	0.94	
708.073	0.99	
708.474	0.91	
708.876	0.94	
709.277	0.92	
709.678	1.16	
710.079	0.95	
710.479	1.05	
710.88	1.02	
711.281	1.12	
711.682	0.91	
712.082	1.1	
712.483	0.99	
712.883	1.12	
713.284	1.21	
713.684	0.98	
714.085	1.12	
714.485	1.13	
714.885	1.13	
715.285	1.23	
715.686	1.06	
716.086	1.09	
716.486	0.94	
716.886	1.02	
717.285	1.02	
717.685	0.97	
718.085	1.21	
718.485	1.04	
718.884	1	
719.284	1.09	
719.684	0.98	
720.083	0.97	
720.483	1.17	
720.882	1.09	
721.281	1.14	
721.68	0.99	
722.08	1.16	
722.479	1.21	
722.878	0.94	
723.277	1.32	
723.676	1.07	
724.075	1.15	
724.474	1.26	
724.872	1.09	
725.271	1.2	
725.67	1.01	
726.068	1.16	
726.467	1.11	
726.865	1.24	
727.264	1.35	
727.662	1.22	
728.061	1.23	
728.459	1.16	
728.857	1.19	
729.255	1.16	
729.653	1.07	
730.051	1.23	
730.449	1.05	
730.847	1.13	
731.245	1.32	
731.643	1.32	
732.041	1.18	
732.438	1.27	
732.836	1.31	
733.233	1.14	
733.631	1.07	
734.028	1.28	
734.426	1.43	
734.823	1.18	
735.22	1.35	
735.617	1.35	
736.015	1.26	
736.412	1.32	
736.809	1.24	
737.206	1.21	
737.603	1.31	
737.999	1.35	
738.396	1.15	
738.793	1.13	
739.19	1.2	
739.586	1.06	
739.983	1.27	
740.379	1.41	
740.776	1.26	
741.172	1.12	
741.568	1.18	
741.965	1.37	
742.361	1.55	
742.757	1.32	
743.153	1.31	
743.549	1.12	
743.945	1.27	
744.341	1.29	
744.737	1.3	
745.133	1.43	
745.528	1.23	
745.924	1.4	
746.32	1.3	
746.715	1.11	
747.111	1.2	
747.506	1.25	
747.901	1.37	
748.297	1.3	
748.692	1.39	
749.087	1.54	
749.482	1.17	
749.877	1.19	
750.272	1.24	
750.667	1.26	
751.062	1.45	
751.457	1.4	
751.852	1.26	
752.247	1.36	
752.641	1.35	
753.036	1.85	
753.43	1.37	
753.825	1.38	
754.219	1.43	
754.614	1.2	
755.008	1.37	
755.402	1.26	
755.796	1.42	
756.19	1.31	
756.584	1.42	
756.978	1.29	
757.372	1.47	
757.766	1.45	
758.16	1.31	
758.554	1.4	
758.948	1.37	
759.341	2.05	
759.735	1.35	
760.128	1.18	
760.522	1.61	
760.915	1.89	
761.308	1.63	
761.702	1.31	
762.095	1.28	
762.488	1.54	
762.881	1.29	
763.274	1.45	
763.667	1.39	
764.06	1.25	
764.453	1.28	
764.846	1.65	
765.239	1.47	
765.631	1.72	
766.024	1.48	
766.416	1.44	
766.809	1.4	
767.201	1.51	
767.594	1.63	
767.986	1.4	
768.378	1.73	
768.77	1.63	
769.163	1.43	
769.555	1.32	
769.947	1.84	
770.339	1.92	
770.73	1.54	
771.122	-0	
771.514	1.83	
771.906	1.37	
772.297	1.87	
772.689	1.56	
773.081	1.47	
773.472	-0	
773.863	1.66	
774.255	1.65	
774.646	1.31	
775.037	-0	
775.428	1.4	
775.82	1.08	
776.211	1.5	
776.602	1.34	
776.993	1.31	
777.383	1.31	
777.774	1.45	
778.165	1.57	
778.556	1.4	
778.946	-0	
779.337	1.83	
779.727	1.7	
780.118	1.16	
780.508	1.34	
780.898	1.35	
781.289	1.26	
781.679	1.51	
782.069	2	
782.459	1.4	
782.849	1.78	
783.239	2.33	
783.629	1.66	
784.019	1.42	
784.408	1.47	
784.798	1.26	
785.188	1.55	
785.577	1.49	
785.967	1.49	
786.356	1.62	
786.746	1.85	
787.135	1.41	
787.524	-0	
787.914	1.47	
788.303	1.39	
788.692	1.65	
789.081	1.16	
789.47	1.7	
789.859	1.38	
790.248	1.39	
790.636	1.44	
791.025	1.51	
791.414	1.27	
791.802	1.44	
792.191	1.74	
792.579	2.08	
792.968	1.32	
793.356	1.45	
793.744	1.59	
794.133	1.22	
794.521	1.93	
794.909	1.42	
795.297	1.38	
795.685	1.65	
796.073	1.48	
796.461	1.37	
796.848	1.77	
797.236	1.74	
797.624	1.58	
798.011	1.98	
798.399	2.15	
798.787	1.25	
799.174	1.41	
799.561	1.48	
799.949	2.12	
800.336	1.54	
800.723	1.83	
801.11	1.61	
801.497	1.67	
801.884	1.5	
802.271	1.37	
802.658	1.58	
803.045	1.9	
803.432	1.47	
803.818	1.3	
804.205	1.47	
804.591	2	
804.978	1.14	
805.364	1.76	
805.751	1.22	
806.137	2.09	
806.523	1.31	
806.91	1.43	
807.296	1.4	
807.682	1.71	
808.068	1.25	
808.454	1.43	
808.84	1.47	
809.225	1.31	
809.611	1.82	
809.997	1.92	
810.382	1.1	
810.768	1.22	
811.153	1.28	
811.539	1.53	
811.924	1.85	
812.31	-0	
812.695	-0	
813.08	1.5	
813.465	1.26	
813.85	1.54	
814.235	1.62	
814.62	1.52	
815.005	2.01	
815.39	1.66	
815.775	1.9	
816.159	1.5	
816.544	1.31	
816.929	1.51	
817.313	1.25	
817.697	1.37	
818.082	1.35	
818.466	1.27	
818.85	1.85	
819.235	1.76	
819.619	1.3	
820.003	1.33	
820.387	2.49	
820.771	1.66	
821.155	1.52	
821.538	1.17	
821.922	1.39	
822.306	1.38	
822.689	1.74	
823.073	1.88	
823.457	1.49	
823.84	2.19	
824.223	1.4	
824.607	1.38	
824.99	1.16	
825.373	1.59	
825.756	1.41	
826.139	1.45	
826.522	1.7	
826.905	1.73	
827.288	1.47	
827.671	1.43	
828.054	1.69	
828.436	1.53	
828.819	1.56	
829.201	1.46	
829.584	1.86	
829.966	1.46	
830.349	1.42	
830.731	1.35	
831.113	1.55	
831.495	1.02	
831.878	1.21	
832.26	1.37	
832.642	1.3	
833.024	1.3	
833.405	1.42	
833.787	1.29	
834.169	1.63	
834.551	1.63	
834.932	1.24	
835.314	1.37	
835.695	-0	
836.077	1.46	
836.458	1.33	
836.839	1.34	
837.22	1.52	
837.602	1.89	
837.983	1.49	
838.364	1.77	
838.745	1.87	
839.126	1.3	
839.506	1.62	
839.887	1.43	
840.268	1.28	
840.649	1.45	
841.029	1.73	
841.41	-0	
841.79	1.58	
842.171	1.43	
842.551	1.28	
842.931	0.96	
843.311	1.27	
843.691	1.16	
844.072	1.59	
844.452	1.37	
844.832	-0	
845.211	2.39	
845.591	1.72	
845.971	1.55	
846.351	1.75	
846.73	1.26	
847.11	1.6	
847.489	2.29	
847.869	1.06	
848.248	1.99	
848.627	1.8	
849.007	1.21	
849.386	2.23	
849.765	1.23	
850.144	1.25	
850.523	1.34	
850.902	1.7	
851.281	1.01	
851.66	1.05	
852.038	1.24	
852.417	-0	
852.796	1.45	
853.174	-0	
853.553	1.58	
853.931	1.3	
854.309	-0	
854.688	1.96	
855.066	1.07	
855.444	1.51	
855.822	1.44	
856.2	1.49	
856.578	1.1	
856.956	1.33	
857.334	1.42	
857.712	1.38	
858.089	1.35	
858.467	1.12	
858.844	1.71	
859.222	-0	
859.599	1.89	
859.977	1.98	
860.354	1.35	
860.731	1.84	
861.109	1.34	
861.486	1.99	
861.863	1.16	
862.24	1.5	
862.617	1.44	
862.993	1.83	
863.37	1.7	
863.747	1.38	
864.124	1.38	
864.5	1.56	
864.877	1.28	
865.253	1.86	
865.63	1.46	
866.006	1.52	
866.382	1.02	
866.758	1.14	
867.135	1.14	
867.511	1.67	
867.887	1.36	
868.263	1.41	
868.639	2.2	
869.014	-0	
869.39	1.48	
869.766	1.46	
870.141	1.13	
870.517	1.36	
870.892	1.12	
871.268	1.28	
871.643	-0	
872.019	1	
872.394	2.79	
872.769	1.61	
873.144	1.43	
873.519	1.71	
873.894	0.98	
874.269	1.91	
874.644	-0	
875.019	0.95	
875.393	1.65	
875.768	1.52	
876.143	1.37	
876.517	1.11	
876.891	1.12	
877.266	0.97	
877.64	1.36	
878.014	1.08	
878.389	1.15	
878.763	1.37	
879.137	1.38	
879.511	1.22	
879.885	-0	
880.259	1.19	
880.632	1.01	
881.006	1.42	
881.38	1.37	
881.753	1.26	
882.127	1.24	
882.5	1.57	
882.874	1.66	
883.247	2.48	
883.62	1.65	
883.994	1.12	
884.367	1.05	
884.74	-0	
885.113	1.18	
885.486	1.24	
885.859	1.02	
886.231	0.99	
886.604	1.72	
886.977	1.16	
887.349	1.35	
887.722	1.09	
888.094	1.55	
888.467	1.17	
888.839	1.79	
889.211	1.37	
889.584	-0	
889.956	1.11	
890.328	1.41	
890.7	1.4	
891.072	1.32	
891.444	1.21	
891.816	1.41	
892.187	1.37	
892.559	1.24	
892.931	1.37	
893.302	1.19	
893.674	1.74	
894.045	1.8	
894.416	1.06	
894.788	2.28	
895.159	3.96	
895.53	1.13	
895.901	1.22	
896.272	1.35	
896.643	1.14	
897.014	-0	
897.385	1.1	
897.756	0.96	
898.126	0.98	
898.497	1.15	
898.867	1.38	
899.238	1.58	
899.608	1.26	
899.979	1.43	
900.349	1.3	
900.719	1.16	
901.089	0.8	
901.459	1.36	
901.829	1.43	
902.199	1.56	
902.569	2.13	
902.939	0.87	
903.309	1.28	
903.679	1.35	
904.048	1.21	
904.418	1.49	
904.787	1.47	
905.157	1.19	
905.526	0.92	
905.895	1.25	
906.265	0.84	
906.634	1.58	
907.003	0.98	
907.372	0.92	
907.741	1.56	
908.11	0.81	
908.478	1.31	
908.847	0.76	
909.216	2.44	
909.585	1.26	
909.953	1.03	
910.322	1.74	
910.69	0.96	
911.058	1.16	
911.427	-0	
911.795	1.22	
912.163	-0	
912.531	0.85	
912.899	0.78	
913.267	0.99	
913.635	0.68	
914.003	1.61	
914.37	0.96	
914.738	0.96	
915.106	-0	
915.473	-0	
915.841	1.12	
916.208	1.4	
916.575	1.04	
916.943	2.37	
917.31	-0	
917.677	0.94	
918.044	1.9	
918.411	1.07	
918.778	0.79	
919.145	0.87	
919.512	0.94	
919.879	1.28	
920.245	0.88	
920.612	1.03	
920.978	-0	
921.345	-0	
921.711	0.9	
922.078	0.89	
922.444	-0	
922.81	1.21	
923.176	0.71	
923.542	0.66	
923.908	0.76	
924.274	1.01	
924.64	1.03	
925.006	1.42	
925.371	0.83	
925.737	1.15	
926.103	0.76	
926.468	2.28	
926.834	0.69	
927.199	0.88	
927.564	0.79	
927.93	0.77	
928.295	0.78	
928.66	0.47	
929.025	1.07	
929.39	0.64	
929.755	1.7	
930.12	1.89	
930.484	0.92	
930.849	0.98	
931.214	0.58	
931.578	0.5	
931.943	0.51	
932.307	0.54	
932.672	0.58	
933.036	0.74	
933.4	0.78	
933.764	-0	
934.128	1.02	
934.492	0.78	
934.856	0.59	
935.22	2.18	
935.584	0.87	
935.948	-0	
936.311	0.45	
936.675	0.83	
937.039	1.08	
937.402	1.04	
937.765	1.33	
938.129	0.6	
938.492	1.49	
938.855	0.58	
939.218	0.36	
939.581	0.85	
939.944	0.43	
940.307	0.93	
940.67	3.08	
941.033	1.05	
941.396	1.26	
941.758	-0	
942.121	0.74	
942.483	0.99	
942.846	0.83	
943.208	3.22	
943.571	-0	
943.933	0.6	
944.295	1.1	
944.657	1.2	
945.019	0.63	
945.381	0.45	
945.743	0.56	
946.105	0.62	
946.467	1.73	
946.828	-0	
947.19	0.26	
947.551	0.82	
947.913	0.65	
948.274	0.81	
948.636	0.56	
948.997	0.61	
949.358	0.9	
949.719	0.45	
950.08	0.69	
950.441	0.65	
950.802	0.33	
951.163	1.12	
951.524	0.69	
951.885	0.87	
952.245	0.55	
952.606	0.81	
952.966	0.27	
953.327	0.5	
953.687	-0	
954.047	-0	
954.408	0.94	
954.768	0.71	
955.128	-0	
955.488	-0	
955.848	-0	
956.208	0.69	
956.568	-0	
956.927	0.55	
957.287	1.22	
957.647	-0	
958.006	-0	
958.366	0.71	
958.725	0.41	
959.084	-0	
959.444	0.8	
959.803	-0	
960.162	-0	
960.521	1.51	
960.88	1.9	
961.239	0.49	
961.598	0.44	
961.957	-0	
962.315	0.69	
962.674	-0	
963.033	-0	
963.391	-0	
963.75	-0	
964.108	0.64	
964.466	0.71	
964.824	0.51	
965.183	2.91	
965.541	0.45	
965.899	0.46	
966.257	0.37	
966.614	0.87	
966.972	-0	
967.33	0.69	
967.688	3.04	
968.045	0.47	
968.403	-0	
968.76	0.71	
969.118	0.13	
969.475	0.55	
969.832	-0	
970.189	-0	
970.546	0.41	
970.903	0.74	
971.26	0.69	
971.617	-0.18	
971.974	1.37	
972.331	-0	
972.688	0.51	
973.044	0.5	
973.401	-0	
973.757	-0.05	
974.114	0.35	
974.47	-0	
974.826	0.24	
975.182	0.4	
975.538	-0	
975.895	0.45	
976.251	-0.04	
976.606	0.09	
976.962	1.16	
977.318	0.11	
977.674	0.16	
978.029	0.24	
978.385	0.02	
978.74	0.31	
979.096	1.23	
979.451	-0.26	
979.806	0.18	
980.162	-0.56	
980.517	-0	
980.872	2.66	
981.227	2.4	
981.582	0.82	
981.937	0.02	
982.291	0.25	
982.646	-0.17	
983.001	0.16	
983.355	0.01	
983.71	0.17	
984.064	0.77	
984.419	-0	
984.773	2.24	
985.127	0.36	
985.481	0.14	
985.835	-0	
986.189	-0	
986.543	-0.05	
986.897	0.01	
987.251	-0	
987.605	-0	
987.958	-0	
988.312	0.33	
988.665	1.19	
989.019	-0	
989.372	-0	
989.725	-0.06	
990.079	0.1	
990.432	0.03	
990.785	0.39	
991.138	-0	
991.491	1.39	
991.844	0.45	
992.197	0.69	
992.549	-0	
992.902	0.18	
993.254	-0.1	
993.607	0.19	
993.959	0.23	
994.312	0.44	
994.664	0.5	
995.016	0.79	
995.368	0.11	
995.721	0.54	
996.073	0.48	
996.425	0.23	
996.776	-0.36	
997.128	0.11	
997.48	0.42	
997.832	0.03	
998.183	0.1	
998.535	0.15	
998.886	-0.21	
999.237	-0.11	
999.589	0.06	
999.94	0.12	
1000.291	-1.93	
1000.642	-0.18	
1000.993	-0	
1001.344	-0.07	
1001.695	1.48	
1002.046	0.09	
1002.397	0.01	
1002.747	0.21	
1003.098	-0	
1003.448	-0.21	
1003.799	0.22	
1004.149	-0	
1004.499	2.56	
1004.85	0.73	
1005.2	0.53	
1005.55	0.19	
1005.9	0.44	
1006.25	-0.01	
1006.6	0.04	
1006.949	-0	
1007.299	0.74	
1007.649	0.05	
1007.998	-0.07	
1008.348	1.17	
1008.697	-0.38	
1009.047	-0	
1009.396	0.46	
1009.745	0.37	
1010.094	0.2	
1010.443	-0	
1010.792	0.13	
1011.141	-0	
1011.49	-0.02	
1011.839	0.36	
1012.188	-0.35	
1012.536	0.01	
1012.885	-0.16	
1013.233	0.03	
1013.582	-0.14	
1013.93	-0	
1014.278	-0	
1014.627	-0.05	
1014.975	0.24	
1015.323	0.17	
1015.671	0.51	
1016.019	-0.26	
1016.367	-0.18	
1016.714	0.15	
1017.062	-0.26	
1017.41	-0	
1017.757	0.35	
1018.105	-0.17	
1018.452	-0.26	
1018.8	-0	
1019.147	0.1	
1019.494	-0.29	
1019.841	-0.08	
1020.188	-0	
1020.535	-0	
1020.882	-0	
1021.229	-0.27	
1021.576	-0.01	
1021.922	-0.29	
1022.269	-0.03	
1022.615	-0.22	
1022.962	-0	
1023.308	-0	
1023.655	-0	
