Absorbance:209		
188.012	0.15	
188.47	0.15	
188.927	0.15	
189.385	-0	
189.842	0.68	
190.3	-0	
190.757	-0	
191.215	-0.94	
191.672	0.44	
192.129	0.26	
192.586	-0.52	
193.044	-0	
193.501	-0.21	
193.958	-0.15	
194.415	-0	
194.872	-1.61	
195.329	1.19	
195.787	-0.04	
196.244	-0	
196.7	-0.32	
197.157	-0	
197.614	0.12	
198.071	-0.17	
198.528	-0.2	
198.985	0.11	
199.441	0.03	
199.898	-0.03	
200.355	-0.11	
200.812	-0.1	
201.268	-0.17	
201.725	-0.18	
202.181	0.03	
202.638	-0.13	
203.094	0.07	
203.551	-0.13	
204.007	0.03	
204.463	0.01	
204.92	0.06	
205.376	0.01	
205.832	-0	
206.288	0.2	
206.744	-0.08	
207.201	0.01	
207.657	-0.04	
208.113	-0.02	
208.569	-0.06	
209.025	-0.01	
209.481	0.03	
209.937	-0.05	
210.392	0.01	
210.848	0.05	
211.304	0.09	
211.76	0.03	
212.215	-0.03	
212.671	0.04	
213.127	0.12	
213.582	0.35	
214.038	0.26	
214.494	0.23	
214.949	0.3	
215.404	0.36	
215.86	0.32	
216.315	0.37	
216.771	0.38	
217.226	0.46	
217.681	0.48	
218.136	0.49	
218.592	0.51	
219.047	0.44	
219.502	0.38	
219.957	0.39	
220.412	0.35	
220.867	0.32	
221.322	0.28	
221.777	0.21	
222.232	0.2	
222.687	0.17	
223.142	0.15	
223.596	0.11	
224.051	0.08	
224.506	0.05	
224.96	0.04	
225.415	0.01	
225.87	0	
226.324	-0.01	
226.779	-0.04	
227.233	-0.06	
227.688	-0.06	
228.142	-0.09	
228.597	-0.09	
229.051	-0.1	
229.505	-0.11	
229.959	-0.12	
230.414	-0.13	
230.868	-0.13	
231.322	-0.13	
231.776	-0.13	
232.23	-0.15	
232.684	-0.14	
233.138	-0.15	
233.592	-0.15	
234.046	-0.16	
234.5	-0.16	
234.954	-0.16	
235.408	-0.17	
235.861	-0.17	
236.315	-0.18	
236.769	-0.17	
237.222	-0.17	
237.676	-0.18	
238.13	-0.18	
238.583	-0.18	
239.037	-0.18	
239.49	-0.18	
239.944	-0.18	
240.397	-0.19	
240.85	-0.19	
241.304	-0.18	
241.757	-0.18	
242.21	-0.19	
242.663	-0.19	
243.117	-0.19	
243.57	-0.18	
244.023	-0.2	
244.476	-0.19	
244.929	-0.2	
245.382	-0.19	
245.835	-0.19	
246.288	-0.19	
246.741	-0.2	
247.193	-0.2	
247.646	-0.19	
248.099	-0.2	
248.552	-0.2	
249.004	-0.21	
249.457	-0.2	
249.909	-0.2	
250.362	-0.2	
250.814	-0.21	
251.267	-0.2	
251.719	-0.21	
252.172	-0.21	
252.624	-0.22	
253.076	-0.21	
253.529	-0.21	
253.981	-0.22	
254.433	-0.21	
254.885	-0.22	
255.337	-0.22	
255.79	-0.21	
256.242	-0.21	
256.694	-0.22	
257.146	-0.22	
257.598	-0.22	
258.049	-0.21	
258.501	-0.22	
258.953	-0.22	
259.405	-0.21	
259.857	-0.22	
260.308	-0.22	
260.76	-0.22	
261.212	-0.22	
261.663	-0.22	
262.115	-0.21	
262.566	-0.22	
263.018	-0.22	
263.469	-0.22	
263.92	-0.22	
264.372	-0.22	
264.823	-0.22	
265.274	-0.22	
265.726	-0.22	
266.177	-0.22	
266.628	-0.22	
267.079	-0.22	
267.53	-0.22	
267.981	-0.22	
268.432	-0.23	
268.883	-0.22	
269.334	-0.23	
269.785	-0.22	
270.236	-0.23	
270.687	-0.23	
271.137	-0.22	
271.588	-0.23	
272.039	-0.23	
272.489	-0.23	
272.94	-0.23	
273.391	-0.23	
273.841	-0.23	
274.292	-0.23	
274.742	-0.23	
275.192	-0.23	
275.643	-0.24	
276.093	-0.24	
276.543	-0.23	
276.994	-0.23	
277.444	-0.24	
277.894	-0.24	
278.344	-0.24	
278.794	-0.24	
279.244	-0.24	
279.694	-0.24	
280.144	-0.24	
280.594	-0.24	
281.044	-0.24	
281.494	-0.23	
281.944	-0.24	
282.394	-0.24	
282.843	-0.23	
283.293	-0.24	
283.743	-0.24	
284.192	-0.24	
284.642	-0.24	
285.091	-0.24	
285.541	-0.24	
285.99	-0.24	
286.44	-0.24	
286.889	-0.24	
287.338	-0.24	
287.788	-0.24	
288.237	-0.24	
288.686	-0.24	
289.135	-0.23	
289.584	-0.23	
290.034	-0.24	
290.483	-0.24	
290.932	-0.24	
291.381	-0.24	
291.83	-0.24	
292.278	-0.24	
292.727	-0.24	
293.176	-0.24	
293.625	-0.24	
294.074	-0.24	
294.522	-0.24	
294.971	-0.24	
295.42	-0.24	
295.868	-0.24	
296.317	-0.24	
296.765	-0.25	
297.214	-0.25	
297.662	-0.25	
298.11	-0.25	
298.559	-0.25	
299.007	-0.24	
299.455	-0.25	
299.903	-0.25	
300.352	-0.25	
300.8	-0.25	
301.248	-0.25	
301.696	-0.25	
302.144	-0.25	
302.592	-0.25	
303.04	-0.25	
303.488	-0.25	
303.936	-0.25	
304.383	-0.25	
304.831	-0.25	
305.279	-0.25	
305.727	-0.25	
306.174	-0.25	
306.622	-0.25	
307.069	-0.25	
307.517	-0.26	
307.964	-0.25	
308.412	-0.25	
308.859	-0.25	
309.306	-0.25	
309.754	-0.25	
310.201	-0.25	
310.648	-0.25	
311.096	-0.26	
311.543	-0.25	
311.99	-0.26	
312.437	-0.25	
312.884	-0.25	
313.331	-0.26	
313.778	-0.26	
314.225	-0.26	
314.672	-0.26	
315.118	-0.25	
315.565	-0.26	
316.012	-0.26	
316.459	-0.26	
316.905	-0.26	
317.352	-0.26	
317.798	-0.26	
318.245	-0.26	
318.691	-0.26	
319.138	-0.27	
319.584	-0.26	
320.031	-0.26	
320.477	-0.27	
320.923	-0.28	
321.37	-0.28	
321.816	-0.28	
322.262	-0.27	
322.708	-0.27	
323.154	-0.26	
323.6	-0.26	
324.046	-0.25	
324.492	-0.26	
324.938	-0.26	
325.384	-0.26	
325.83	-0.26	
326.276	-0.26	
326.721	-0.27	
327.167	-0.26	
327.613	-0.26	
328.058	-0.26	
328.504	-0.26	
328.949	-0.26	
329.395	-0.26	
329.84	-0.27	
330.286	-0.26	
330.731	-0.26	
331.177	-0.26	
331.622	-0.27	
332.067	-0.27	
332.512	-0.27	
332.957	-0.27	
333.403	-0.27	
333.848	-0.27	
334.293	-0.27	
334.738	-0.27	
335.183	-0.28	
335.628	-0.27	
336.072	-0.27	
336.517	-0.27	
336.962	-0.27	
337.407	-0.27	
337.852	-0.27	
338.296	-0.27	
338.741	-0.28	
339.185	-0.28	
339.63	-0.27	
340.074	-0.27	
340.519	-0.27	
340.963	-0.28	
341.408	-0.27	
341.852	-0.27	
342.296	-0.27	
342.741	-0.27	
343.185	-0.27	
343.629	-0.27	
344.073	-0.27	
344.517	-0.27	
344.961	-0.27	
345.405	-0.29	
345.849	-0.28	
346.293	-0.27	
346.737	-0.27	
347.181	-0.27	
347.624	-0.28	
348.068	-0.27	
348.512	-0.27	
348.955	-0.27	
349.399	-0.27	
349.843	-0.28	
350.286	-0.27	
350.73	-0.26	
351.173	-0.27	
351.617	-0.27	
352.06	-0.27	
352.503	-0.27	
352.946	-0.27	
353.39	-0.27	
353.833	-0.28	
354.276	-0.26	
354.719	-0.27	
355.162	-0.27	
355.605	-0.27	
356.048	-0.27	
356.491	-0.27	
356.934	-0.27	
357.377	-0.27	
357.82	-0.27	
358.262	-0.27	
358.705	-0.26	
359.148	-0.27	
359.59	-0.28	
360.033	-0.27	
360.475	-0.27	
360.918	-0.27	
361.36	-0.27	
361.803	-0.26	
362.245	-0.28	
362.688	-0.26	
363.13	-0.27	
363.572	-0.26	
364.014	-0.26	
364.456	-0.27	
364.899	-0.26	
365.341	-0.26	
365.783	-0.26	
366.225	-0.26	
366.667	-0.26	
367.108	-0.26	
367.55	-0.25	
367.992	-0.26	
368.434	-0.25	
368.876	-0.25	
369.317	-0.26	
369.759	-0.26	
370.201	-0.25	
370.642	-0.25	
371.084	-0.25	
371.525	-0.24	
371.966	-0.25	
372.408	-0.24	
372.849	-0.25	
373.29	-0.24	
373.732	-0.25	
374.173	-0.24	
374.614	-0.24	
375.055	-0.24	
375.496	-0.24	
375.937	-0.24	
376.378	-0.25	
376.819	-0.23	
377.26	-0.24	
377.701	-0.24	
378.142	-0.23	
378.583	-0.23	
379.023	-0.23	
379.464	-0.23	
379.905	-0.23	
380.345	-0.23	
380.786	-0.23	
381.226	-0.22	
381.667	-0.22	
382.107	-0.22	
382.548	-0.22	
382.988	-0.21	
383.428	-0.22	
383.868	-0.21	
384.309	-0.22	
384.749	-0.21	
385.189	-0.2	
385.629	-0.21	
386.069	-0.22	
386.509	-0.2	
386.949	-0.2	
387.389	-0.21	
387.829	-0.21	
388.268	-0.19	
388.708	-0.2	
389.148	-0.19	
389.588	-0.2	
390.027	-0.19	
390.467	-0.19	
390.906	-0.18	
391.346	-0.18	
391.785	-0.19	
392.225	-0.19	
392.664	-0.17	
393.103	-0.18	
393.543	-0.18	
393.982	-0.17	
394.421	-0.17	
394.86	-0.16	
395.299	-0.17	
395.738	-0.17	
396.177	-0.16	
396.616	-0.16	
397.055	-0.15	
397.494	-0.15	
397.933	-0.16	
398.372	-0.16	
398.81	-0.16	
399.249	-0.15	
399.688	-0.15	
400.126	-0.15	
400.565	-0.14	
401.004	-0.14	
401.442	-0.14	
401.88	-0.15	
402.319	-0.13	
402.757	-0.14	
403.195	-0.13	
403.634	-0.14	
404.072	-0.13	
404.51	-0.13	
404.948	-0.13	
405.386	-0.13	
405.824	-0.13	
406.262	-0.13	
406.7	-0.13	
407.138	-0.13	
407.576	-0.12	
408.014	-0.12	
408.452	-0.12	
408.889	-0.11	
409.327	-0.12	
409.765	-0.1	
410.202	-0.11	
410.64	-0.11	
411.077	-0.1	
411.515	-0.1	
411.952	-0.11	
412.389	-0.1	
412.827	-0.08	
413.264	-0.09	
413.701	-0.09	
414.138	-0.08	
414.575	-0.07	
415.013	-0.07	
415.45	-0.07	
415.887	-0.07	
416.324	-0.06	
416.76	-0.07	
417.197	-0.06	
417.634	-0.06	
418.071	-0.06	
418.508	-0.05	
418.944	-0.06	
419.381	-0.03	
419.818	-0.04	
420.254	-0.03	
420.691	-0.03	
421.127	-0.02	
421.563	-0.03	
422	-0.02	
422.436	-0.02	
422.872	-0.01	
423.309	-0	
423.745	-0	
424.181	0	
424.617	0.01	
425.053	0.01	
425.489	0.02	
425.925	0.04	
426.361	0.04	
426.797	0.04	
427.233	0.05	
427.668	0.06	
428.104	0.06	
428.54	0.07	
428.975	0.08	
429.411	0.08	
429.847	0.08	
430.282	0.09	
430.717	0.1	
431.153	0.1	
431.588	0.13	
432.024	0.13	
432.459	0.14	
432.894	0.15	
433.329	0.16	
433.764	0.17	
434.199	0.17	
434.634	0.18	
435.069	0.2	
435.504	0.21	
435.939	0.21	
436.374	0.22	
436.809	0.23	
437.244	0.24	
437.678	0.26	
438.113	0.26	
438.548	0.26	
438.982	0.29	
439.417	0.28	
439.851	0.29	
440.286	0.29	
440.72	0.31	
441.154	0.32	
441.589	0.34	
442.023	0.35	
442.457	0.36	
442.891	0.37	
443.326	0.39	
443.76	0.4	
444.194	0.42	
444.628	0.43	
445.062	0.46	
445.495	0.45	
445.929	0.48	
446.363	0.46	
446.797	0.48	
447.23	0.48	
447.664	0.51	
448.098	0.52	
448.531	0.54	
448.965	0.57	
449.398	0.57	
449.832	0.57	
450.265	0.6	
450.698	0.58	
451.132	0.6	
451.565	0.63	
451.998	0.65	
452.431	0.66	
452.864	0.64	
453.297	0.68	
453.73	0.7	
454.163	0.68	
454.596	0.69	
455.029	0.72	
455.462	0.73	
455.895	0.75	
456.327	0.77	
456.76	0.74	
457.193	0.79	
457.625	0.8	
458.058	0.78	
458.49	0.81	
458.923	0.79	
459.355	0.86	
459.787	0.85	
460.22	0.89	
460.652	0.87	
461.084	0.86	
461.516	0.92	
461.948	0.95	
462.381	0.93	
462.813	0.93	
463.245	0.92	
463.676	0.93	
464.108	0.98	
464.54	0.93	
464.972	0.97	
465.404	0.96	
465.835	0.95	
466.267	1.04	
466.699	1.01	
467.13	1	
467.562	1.01	
467.993	1	
468.424	1.02	
468.856	1.04	
469.287	1.05	
469.718	1.01	
470.15	1.07	
470.581	1.11	
471.012	1.12	
471.443	1.06	
471.874	1.1	
472.305	1.07	
472.736	1.12	
473.167	1.08	
473.598	1.16	
474.028	1.04	
474.459	1.09	
474.89	1.13	
475.32	1.06	
475.751	1.13	
476.182	1.12	
476.612	1.13	
477.043	1.16	
477.473	1.22	
477.903	1.16	
478.334	1.15	
478.764	1.21	
479.194	1.19	
479.624	1.15	
480.054	1.21	
480.484	1.16	
480.914	1.19	
481.344	1.2	
481.774	1.25	
482.204	1.24	
482.634	1.2	
483.064	1.22	
483.494	1.24	
483.923	1.3	
484.353	1.31	
484.782	1.25	
485.212	1.36	
485.642	1.28	
486.071	1.24	
486.5	1.28	
486.93	1.34	
487.359	1.35	
487.788	1.3	
488.217	1.33	
488.647	1.22	
489.076	1.39	
489.505	1.32	
489.934	1.49	
490.363	1.39	
490.792	1.31	
491.221	1.4	
491.649	1.35	
492.078	1.34	
492.507	1.34	
492.936	1.39	
493.364	1.34	
493.793	1.37	
494.221	1.36	
494.65	1.41	
495.078	1.39	
495.507	1.48	
495.935	1.38	
496.363	1.36	
496.791	1.42	
497.22	1.43	
497.648	1.53	
498.076	1.52	
498.504	1.47	
498.932	1.43	
499.36	1.44	
499.788	1.45	
500.216	1.41	
500.643	1.71	
501.071	1.73	
501.499	1.52	
501.927	1.51	
502.354	1.39	
502.782	1.54	
503.209	1.72	
503.637	1.41	
504.064	1.56	
504.491	1.46	
504.919	1.48	
505.346	1.55	
505.773	1.56	
506.2	1.46	
506.628	1.6	
507.055	1.67	
507.482	1.72	
507.909	1.54	
508.335	1.62	
508.762	1.44	
509.189	1.6	
509.616	1.63	
510.043	1.74	
510.469	1.41	
510.896	1.54	
511.323	1.51	
511.749	1.5	
512.176	1.86	
512.602	1.48	
513.028	1.5	
513.455	1.56	
513.881	1.63	
514.307	1.49	
514.733	1.67	
515.16	1.63	
515.586	1.48	
516.012	1.65	
516.438	1.58	
516.864	1.48	
517.29	1.46	
517.715	1.57	
518.141	1.5	
518.567	1.57	
518.993	1.37	
519.418	1.52	
519.844	1.43	
520.269	1.52	
520.695	1.52	
521.12	1.46	
521.546	1.4	
521.971	1.4	
522.396	1.45	
522.822	1.34	
523.247	1.49	
523.672	1.58	
524.097	1.4	
524.522	1.51	
524.947	1.34	
525.372	1.41	
525.797	1.41	
526.222	1.52	
526.647	1.42	
527.071	1.44	
527.496	1.41	
527.921	1.53	
528.345	1.44	
528.77	1.5	
529.194	1.61	
529.619	1.27	
530.043	1.26	
530.468	1.37	
530.892	1.28	
531.316	1.28	
531.74	1.27	
532.164	1.21	
532.589	1.2	
533.013	1.29	
533.437	1.25	
533.861	1.23	
534.284	1.18	
534.708	1.21	
535.132	1.22	
535.556	1.14	
535.98	1.14	
536.403	1.18	
536.827	1.18	
537.25	1.1	
537.674	1.13	
538.097	1.05	
538.521	1.13	
538.944	1.01	
539.367	1.05	
539.791	1.05	
540.214	1.05	
540.637	0.98	
541.06	0.97	
541.483	0.94	
541.906	0.99	
542.329	0.95	
542.752	0.94	
543.175	0.93	
543.598	0.93	
544.02	0.91	
544.443	0.86	
544.866	0.85	
545.288	0.82	
545.711	0.81	
546.133	0.82	
546.556	0.82	
546.978	0.77	
547.4	0.78	
547.823	0.74	
548.245	0.74	
548.667	0.68	
549.089	0.68	
549.511	0.66	
549.933	0.66	
550.355	0.66	
550.777	0.63	
551.199	0.61	
551.621	0.63	
552.043	0.6	
552.465	0.55	
552.886	0.6	
553.308	0.58	
553.729	0.53	
554.151	0.5	
554.572	0.51	
554.994	0.51	
555.415	0.51	
555.837	0.47	
556.258	0.47	
556.679	0.43	
557.1	0.44	
557.521	0.42	
557.942	0.42	
558.363	0.4	
558.784	0.39	
559.205	0.39	
559.626	0.37	
560.047	0.35	
560.468	0.33	
560.888	0.31	
561.309	0.31	
561.73	0.29	
562.15	0.29	
562.571	0.26	
562.991	0.27	
563.412	0.26	
563.832	0.25	
564.252	0.23	
564.673	0.21	
565.093	0.22	
565.513	0.22	
565.933	0.2	
566.353	0.19	
566.773	0.18	
567.193	0.16	
567.613	0.15	
568.033	0.16	
568.452	0.16	
568.872	0.14	
569.292	0.11	
569.711	0.12	
570.131	0.1	
570.551	0.1	
570.97	0.09	
571.389	0.07	
571.809	0.07	
572.228	0.07	
572.647	0.07	
573.067	0.06	
573.486	0.05	
573.905	0.03	
574.324	0.04	
574.743	0.03	
575.162	0.02	
575.581	0.02	
576	0.02	
576.419	0.02	
576.837	-0.01	
577.256	-0.01	
577.675	-0.01	
578.093	-0.02	
578.512	-0.03	
578.93	-0.03	
579.349	-0.02	
579.767	-0.03	
580.185	-0.03	
580.604	-0.03	
581.022	-0.03	
581.44	-0.06	
581.858	-0.06	
582.276	-0.06	
582.694	-0.05	
583.112	-0.06	
583.53	-0.05	
583.948	-0.06	
584.366	-0.05	
584.784	-0.07	
585.201	-0.1	
585.619	-0.09	
586.037	-0.09	
586.454	-0.08	
586.872	-0.08	
587.289	-0.07	
587.707	-0.09	
588.124	-0.09	
588.541	-0.09	
588.958	-0.09	
589.376	-0.07	
589.793	-0.08	
590.21	-0.08	
590.627	-0.09	
591.044	-0.09	
591.461	-0.08	
591.878	-0.09	
592.294	-0.1	
592.711	-0.1	
593.128	-0.1	
593.545	-0.12	
593.961	-0.11	
594.378	-0.1	
594.794	-0.08	
595.211	-0.09	
595.627	-0.11	
596.043	-0.09	
596.46	-0.09	
596.876	-0.1	
597.292	-0.11	
597.708	-0.11	
598.124	-0.12	
598.54	-0.1	
598.956	-0.12	
599.372	-0.13	
599.788	-0.12	
600.204	-0.12	
600.62	-0.13	
601.035	-0.11	
601.451	-0.11	
601.867	-0.1	
602.282	-0.11	
602.698	-0.11	
603.113	-0.09	
603.529	-0.11	
603.944	-0.12	
604.359	-0.12	
604.774	-0.12	
605.19	-0.12	
605.605	-0.11	
606.02	-0.13	
606.435	-0.12	
606.85	-0.12	
607.265	-0.12	
607.68	-0.14	
608.094	-0.13	
608.509	-0.11	
608.924	-0.12	
609.338	-0.12	
609.753	-0.12	
610.168	-0.13	
610.582	-0.12	
610.997	-0.13	
611.411	-0.11	
611.825	-0.12	
612.24	-0.12	
612.654	-0.11	
613.068	-0.11	
613.482	-0.12	
613.896	-0.12	
614.31	-0.12	
614.724	-0.13	
615.138	-0.15	
615.552	-0.13	
615.966	-0.12	
616.379	-0.12	
616.793	-0.12	
617.207	-0.11	
617.62	-0.12	
618.034	-0.12	
618.447	-0.12	
618.861	-0.12	
619.274	-0.1	
619.687	-0.1	
620.101	-0.12	
620.514	-0.11	
620.927	-0.1	
621.34	-0.12	
621.753	-0.09	
622.166	-0.12	
622.579	-0.13	
622.992	-0.12	
623.405	-0.11	
623.817	-0.11	
624.23	-0.12	
624.643	-0.11	
625.055	-0.13	
625.468	-0.11	
625.88	-0.11	
626.293	-0.11	
626.705	-0.1	
627.118	-0.11	
627.53	-0.12	
627.942	-0.11	
628.354	-0.12	
628.766	-0.1	
629.179	-0.1	
629.591	-0.1	
630.003	-0.1	
630.414	-0.11	
630.826	-0.09	
631.238	-0.08	
631.65	-0.09	
632.061	-0.09	
632.473	-0.08	
632.885	-0.1	
633.296	-0.09	
633.708	-0.09	
634.119	-0.09	
634.53	-0.09	
634.942	-0.08	
635.353	-0.07	
635.764	-0.08	
636.175	-0.09	
636.586	-0.11	
636.998	-0.11	
637.408	-0.11	
637.819	-0.09	
638.23	-0.07	
638.641	-0.08	
639.052	-0.07	
639.463	-0.09	
639.873	-0.08	
640.284	-0.06	
640.694	-0.07	
641.105	-0.07	
641.515	-0.07	
641.926	-0.06	
642.336	-0.08	
642.746	-0.08	
643.157	-0.05	
643.567	-0.08	
643.977	-0.06	
644.387	-0.08	
644.797	-0.09	
645.207	-0.09	
645.617	-0.07	
646.026	-0.08	
646.436	-0.07	
646.846	-0.09	
647.256	-0.05	
647.665	-0.07	
648.075	-0.08	
648.484	-0.1	
648.894	-0.1	
649.303	-0.1	
649.713	-0.08	
650.122	-0.09	
650.531	-0.1	
650.94	-0.07	
651.349	-0.09	
651.758	-0.08	
652.167	-0.09	
652.576	-0.07	
652.985	-0.08	
653.394	-0.08	
653.803	-0.08	
654.212	-0.08	
654.62	-0.07	
655.029	-0.08	
655.437	-0.07	
655.846	-0.16	
656.254	-0.23	
656.663	-0.19	
657.071	-0.16	
657.479	-0.12	
657.888	-0.13	
658.296	-0.12	
658.704	-0.13	
659.112	-0.12	
659.52	-0.09	
659.928	-0.08	
660.336	-0.06	
660.744	-0.08	
661.152	-0.09	
661.559	-0.09	
661.967	-0.08	
662.375	-0.1	
662.782	-0.07	
663.19	-0.07	
663.597	-0.08	
664.005	-0.06	
664.412	-0.08	
664.819	-0.07	
665.226	-0.08	
665.634	-0.08	
666.041	-0.08	
666.448	-0.07	
666.855	-0.08	
667.262	-0.08	
667.669	-0.05	
668.075	-0.06	
668.482	-0.09	
668.889	-0.06	
669.296	-0.06	
669.702	-0.08	
670.109	-0.1	
670.515	-0.09	
670.922	-0.11	
671.328	-0.11	
671.734	-0.11	
672.141	-0.12	
672.547	-0.11	
672.953	-0.1	
673.359	-0.08	
673.765	-0.08	
674.171	-0.08	
674.577	-0.08	
674.983	-0.09	
675.389	-0.08	
675.795	-0.08	
676.201	-0.12	
676.606	-0.1	
677.012	-0.1	
677.417	-0.11	
677.823	-0.09	
678.228	-0.11	
678.634	-0.1	
679.039	-0.1	
679.444	-0.11	
679.849	-0.12	
680.255	-0.14	
680.66	-0.12	
681.065	-0.11	
681.47	-0.11	
681.875	-0.12	
682.28	-0.12	
682.684	-0.12	
683.089	-0.1	
683.494	-0.09	
683.899	-0.08	
684.303	-0.11	
684.708	-0.14	
685.112	-0.12	
685.517	-0.15	
685.921	-0.13	
686.325	-0.16	
686.729	-0.15	
687.134	-0.12	
687.538	-0.13	
687.942	-0.13	
688.346	-0.12	
688.75	-0.13	
689.154	-0.1	
689.558	-0.09	
689.961	-0.13	
690.365	-0.12	
690.769	-0.09	
691.173	-0.11	
691.576	-0.14	
691.98	-0.12	
692.383	-0.12	
692.786	-0.11	
693.19	-0.13	
693.593	-0.11	
693.996	-0.12	
694.399	-0.12	
694.803	-0.1	
695.206	-0.11	
695.609	-0.12	
696.012	-0.12	
696.414	-0.12	
696.817	-0.13	
697.22	-0.13	
697.623	-0.15	
698.025	-0.16	
698.428	-0.12	
698.831	-0.13	
699.233	-0.13	
699.636	-0.12	
700.038	-0.12	
700.44	-0.11	
700.842	-0.11	
701.245	-0.07	
701.647	-0.12	
702.049	-0.1	
702.451	-0.12	
702.853	-0.14	
703.255	-0.14	
703.657	-0.11	
704.058	-0.1	
704.46	-0.13	
704.862	-0.12	
705.264	-0.13	
705.665	-0.11	
706.067	-0.11	
706.468	-0.09	
706.869	-0.15	
707.271	-0.15	
707.672	-0.17	
708.073	-0.16	
708.474	-0.15	
708.876	-0.15	
709.277	-0.14	
709.678	-0.13	
710.079	-0.11	
710.479	-0.14	
710.88	-0.14	
711.281	-0.1	
711.682	-0.13	
712.082	-0.12	
712.483	-0.13	
712.883	-0.12	
713.284	-0.13	
713.684	-0.15	
714.085	-0.14	
714.485	-0.14	
714.885	-0.13	
715.285	-0.17	
715.686	-0.13	
716.086	-0.12	
716.486	-0.12	
716.886	-0.12	
717.285	-0.13	
717.685	-0.12	
718.085	-0.11	
718.485	-0.15	
718.884	-0.13	
719.284	-0.15	
719.684	-0.14	
720.083	-0.16	
720.483	-0.1	
720.882	-0.11	
721.281	-0.15	
721.68	-0.12	
722.08	-0.13	
722.479	-0.13	
722.878	-0.12	
723.277	-0.11	
723.676	-0.13	
724.075	-0.13	
724.474	-0.12	
724.872	-0.13	
725.271	-0.15	
725.67	-0.14	
726.068	-0.17	
726.467	-0.14	
726.865	-0.14	
727.264	-0.14	
727.662	-0.14	
728.061	-0.15	
728.459	-0.16	
728.857	-0.12	
729.255	-0.14	
729.653	-0.15	
730.051	-0.17	
730.449	-0.14	
730.847	-0.14	
731.245	-0.17	
731.643	-0.16	
732.041	-0.18	
732.438	-0.14	
732.836	-0.15	
733.233	-0.15	
733.631	-0.16	
734.028	-0.15	
734.426	-0.17	
734.823	-0.19	
735.22	-0.15	
735.617	-0.14	
736.015	-0.17	
736.412	-0.17	
736.809	-0.15	
737.206	-0.16	
737.603	-0.16	
737.999	-0.15	
738.396	-0.15	
738.793	-0.15	
739.19	-0.18	
739.586	-0.17	
739.983	-0.15	
740.379	-0.15	
740.776	-0.16	
741.172	-0.14	
741.568	-0.13	
741.965	-0.12	
742.361	-0.12	
742.757	-0.15	
743.153	-0.13	
743.549	-0.13	
743.945	-0.11	
744.341	-0.14	
744.737	-0.11	
745.133	-0.13	
745.528	-0.12	
745.924	-0.11	
746.32	-0.11	
746.715	-0.1	
747.111	-0.1	
747.506	-0.1	
747.901	-0.1	
748.297	-0.1	
748.692	-0.09	
749.087	-0.08	
749.482	-0.1	
749.877	-0.1	
750.272	-0.12	
750.667	-0.12	
751.062	-0.14	
751.457	-0.13	
751.852	-0.1	
752.247	-0.1	
752.641	-0.11	
753.036	-0.12	
753.43	-0.1	
753.825	-0.14	
754.219	-0.11	
754.614	-0.13	
755.008	-0.13	
755.402	-0.12	
755.796	-0.13	
756.19	-0.1	
756.584	-0.12	
756.978	-0.13	
757.372	-0.15	
757.766	-0.17	
758.16	-0.17	
758.554	-0.16	
758.948	-0.15	
759.341	-0.13	
759.735	-0.13	
760.128	-0.14	
760.522	-0.15	
760.915	-0.15	
761.308	-0.14	
761.702	-0.15	
762.095	-0.14	
762.488	-0.14	
762.881	-0.12	
763.274	-0.12	
763.667	-0.13	
764.06	-0.12	
764.453	-0.13	
764.846	-0.16	
765.239	-0.16	
765.631	-0.16	
766.024	-0.15	
766.416	-0.12	
766.809	-0.13	
767.201	-0.11	
767.594	-0.1	
767.986	-0.1	
768.378	-0.12	
768.77	-0.12	
769.163	-0.12	
769.555	-0.14	
769.947	-0.11	
770.339	-0.11	
770.73	-0.1	
771.122	-0.12	
771.514	-0.11	
771.906	-0.11	
772.297	-0.12	
772.689	-0.1	
773.081	-0.1	
773.472	-0.1	
773.863	-0.13	
774.255	-0.08	
774.646	-0.12	
775.037	-0.1	
775.428	-0.09	
775.82	-0.11	
776.211	-0.08	
776.602	-0.1	
776.993	-0.09	
777.383	-0.1	
777.774	-0.11	
778.165	-0.1	
778.556	-0.11	
778.946	-0.08	
779.337	-0.13	
779.727	-0.09	
780.118	-0.09	
780.508	-0.09	
780.898	-0.09	
781.289	-0.11	
781.679	-0.12	
782.069	-0.1	
782.459	-0.11	
782.849	-0.13	
783.239	-0.11	
783.629	-0.09	
784.019	-0.11	
784.408	-0.1	
784.798	-0.08	
785.188	-0.09	
785.577	-0.1	
785.967	-0.12	
786.356	-0.12	
786.746	-0.09	
787.135	-0.08	
787.524	-0.11	
787.914	-0.1	
788.303	-0.11	
788.692	-0.12	
789.081	-0.11	
789.47	-0.13	
789.859	-0.1	
790.248	-0.08	
790.636	-0.1	
791.025	-0.1	
791.414	-0.08	
791.802	-0.09	
792.191	-0.1	
792.579	-0.11	
792.968	-0.08	
793.356	-0.12	
793.744	-0.14	
794.133	-0.13	
794.521	-0.14	
794.909	-0.14	
795.297	-0.13	
795.685	-0.11	
796.073	-0.14	
796.461	-0.1	
796.848	-0.07	
797.236	-0.1	
797.624	-0.07	
798.011	-0.07	
798.399	-0.1	
798.787	-0.08	
799.174	-0.08	
799.561	-0.1	
799.949	-0.09	
800.336	-0.07	
800.723	-0.09	
801.11	-0.06	
801.497	-0.04	
801.884	-0.08	
802.271	-0.06	
802.658	-0.12	
803.045	-0.09	
803.432	-0.08	
803.818	-0.05	
804.205	-0.06	
804.591	-0.07	
804.978	-0.07	
805.364	-0.09	
805.751	-0.09	
806.137	-0.04	
806.523	-0.11	
806.91	-0.11	
807.296	-0.08	
807.682	-0.08	
808.068	-0.12	
808.454	-0.11	
808.84	-0.08	
809.225	-0.1	
809.611	-0.07	
809.997	-0.09	
810.382	-0.08	
810.768	-0.08	
811.153	-0.11	
811.539	-0.04	
811.924	-0.06	
812.31	-0.05	
812.695	-0.05	
813.08	-0.05	
813.465	-0.07	
813.85	-0.09	
814.235	-0.1	
814.62	-0.1	
815.005	-0.08	
815.39	-0.06	
815.775	-0.07	
816.159	-0.08	
816.544	-0.08	
816.929	-0.1	
817.313	-0.06	
817.697	-0.1	
818.082	-0.07	
818.466	-0.07	
818.85	-0.1	
819.235	-0.06	
819.619	-0.02	
820.003	-0.09	
820.387	-0.06	
820.771	-0.08	
821.155	-0.11	
821.538	-0.07	
821.922	-0.07	
822.306	-0.08	
822.689	-0.07	
823.073	-0.09	
823.457	-0.09	
823.84	-0.08	
824.223	-0.08	
824.607	-0.06	
824.99	-0.06	
825.373	-0.06	
825.756	-0.09	
826.139	-0.1	
826.522	-0.1	
826.905	-0.09	
827.288	-0.09	
827.671	-0.12	
828.054	-0.11	
828.436	-0.1	
828.819	-0.08	
829.201	-0.08	
829.584	-0.09	
829.966	-0.04	
830.349	-0.05	
830.731	-0.02	
831.113	-0.07	
831.495	-0.04	
831.878	-0.05	
832.26	-0.06	
832.642	-0.08	
833.024	-0.07	
833.405	-0.07	
833.787	-0.07	
834.169	-0.1	
834.551	-0.09	
834.932	-0.06	
835.314	-0.06	
835.695	-0.06	
836.077	-0.07	
836.458	-0.03	
836.839	-0.09	
837.22	-0.03	
837.602	-0.06	
837.983	-0.05	
838.364	-0.04	
838.745	-0.04	
839.126	-0.05	
839.506	-0.06	
839.887	-0.04	
840.268	-0.05	
840.649	-0.06	
841.029	-0.06	
841.41	-0.07	
841.79	-0.06	
842.171	-0.05	
842.551	-0.1	
842.931	-0.1	
843.311	-0.04	
843.691	-0.05	
844.072	-0.05	
844.452	-0.05	
844.832	-0.04	
845.211	-0.04	
845.591	-0.05	
845.971	-0.05	
846.351	-0.08	
846.73	-0.07	
847.11	-0.04	
847.489	-0.09	
847.869	-0.05	
848.248	-0.04	
848.627	-0.07	
849.007	-0.04	
849.386	-0.07	
849.765	-0.08	
850.144	-0.05	
850.523	-0.07	
850.902	-0.02	
851.281	-0.06	
851.66	-0.04	
852.038	-0.09	
852.417	-0.08	
852.796	-0.05	
853.174	-0.08	
853.553	-0.09	
853.931	-0.05	
854.309	-0.1	
854.688	-0.01	
855.066	-0.09	
855.444	-0.05	
855.822	-0.07	
856.2	-0.08	
856.578	-0.06	
856.956	-0.08	
857.334	-0.05	
857.712	-0.09	
858.089	-0.08	
858.467	-0.04	
858.844	-0.1	
859.222	-0.06	
859.599	-0.08	
859.977	-0.06	
860.354	-0.03	
860.731	-0.06	
861.109	-0.06	
861.486	-0.02	
861.863	-0.06	
862.24	-0.06	
862.617	-0.07	
862.993	-0.04	
863.37	-0.05	
863.747	-0.05	
864.124	-0.06	
864.5	-0.04	
864.877	-0.03	
865.253	-0.05	
865.63	-0.06	
866.006	-0.05	
866.382	-0.03	
866.758	-0.07	
867.135	-0.02	
867.511	-0.06	
867.887	0.01	
868.263	-0.04	
868.639	-0.01	
869.014	-0.01	
869.39	-0.04	
869.766	-0.04	
870.141	0.02	
870.517	-0.05	
870.892	0.01	
871.268	-0.07	
871.643	-0.04	
872.019	-0.02	
872.394	-0.04	
872.769	-0.04	
873.144	0.04	
873.519	-0.03	
873.894	-0.01	
874.269	-0.03	
874.644	-0.06	
875.019	-0.09	
875.393	-0.03	
875.768	-0.03	
876.143	-0.05	
876.517	-0.06	
876.891	-0.02	
877.266	-0.01	
877.64	-0.05	
878.014	-0.06	
878.389	-0	
878.763	-0	
879.137	-0.02	
879.511	-0.02	
879.885	-0.01	
880.259	0	
880.632	0.01	
881.006	-0.07	
881.38	-0.02	
881.753	-0.04	
882.127	-0	
882.5	-0	
882.874	-0	
883.247	0.01	
883.62	0.03	
883.994	0.05	
884.367	-0.02	
884.74	-0.02	
885.113	0.02	
885.486	-0.01	
885.859	0.01	
886.231	-0.01	
886.604	0.01	
886.977	0.05	
887.349	0.04	
887.722	0.04	
888.094	0.06	
888.467	0.04	
888.839	0.07	
889.211	0.06	
889.584	0.06	
889.956	0.06	
890.328	0.05	
890.7	0.07	
891.072	0.04	
891.444	0.09	
891.816	0.03	
892.187	0.06	
892.559	0.08	
892.931	0.06	
893.302	0.08	
893.674	0.09	
894.045	0.05	
894.416	0.08	
894.788	0.11	
895.159	0.04	
895.53	0.08	
895.901	0.07	
896.272	0.11	
896.643	0.1	
897.014	0.06	
897.385	0.06	
897.756	0.07	
898.126	0.08	
898.497	0.06	
898.867	0.17	
899.238	0.08	
899.608	0.04	
899.979	0.1	
900.349	0.12	
900.719	0.07	
901.089	0.04	
901.459	0.06	
901.829	0.05	
902.199	0.09	
902.569	0.09	
902.939	0.08	
903.309	0.15	
903.679	0.18	
904.048	0.05	
904.418	0.12	
904.787	0.14	
905.157	0.17	
905.526	0.09	
905.895	0.08	
906.265	0.18	
906.634	0.05	
907.003	0.08	
907.372	0.12	
907.741	0.1	
908.11	0.24	
908.478	0.12	
908.847	0.09	
909.216	0.05	
909.585	0.15	
909.953	0.05	
910.322	0.24	
910.69	0.11	
911.058	0.2	
911.427	0.15	
911.795	0.33	
912.163	0.16	
912.531	0.16	
912.899	0.17	
913.267	0.15	
913.635	0.26	
914.003	0.1	
914.37	0.15	
914.738	0.13	
915.106	0.18	
915.473	0.19	
915.841	0.17	
916.208	0.3	
916.575	0.09	
916.943	0.15	
917.31	0.1	
917.677	0.13	
918.044	0.24	
918.411	0.04	
918.778	0.23	
919.145	0.03	
919.512	0.15	
919.879	0.14	
920.245	0.1	
920.612	0.19	
920.978	0.16	
921.345	0.08	
921.711	0.18	
922.078	0.15	
922.444	0.11	
922.81	0.2	
923.176	0.21	
923.542	0.21	
923.908	0.2	
924.274	0.04	
924.64	0.3	
925.006	0.18	
925.371	0.19	
925.737	0.13	
926.103	0.34	
926.468	0.17	
926.834	0.28	
927.199	0.24	
927.564	0.2	
927.93	0.14	
928.295	0.22	
928.66	0.25	
929.025	0.24	
929.39	0.27	
929.755	0.14	
930.12	0.17	
930.484	0.21	
930.849	0.14	
931.214	0.05	
931.578	0.2	
931.943	0.1	
932.307	0.27	
932.672	0.16	
933.036	0.18	
933.4	0.23	
933.764	0.44	
934.128	0.24	
934.492	0.22	
934.856	0.13	
935.22	0.29	
935.584	0.38	
935.948	0.35	
936.311	0.04	
936.675	0.31	
937.039	0.09	
937.402	0.12	
937.765	0.14	
938.129	0.28	
938.492	0.5	
938.855	0.14	
939.218	0.16	
939.581	0.25	
939.944	0.05	
940.307	0.02	
940.67	0.13	
941.033	0.23	
941.396	0.12	
941.758	0.14	
942.121	0.19	
942.483	0.27	
942.846	0.35	
943.208	0.17	
943.571	0.23	
943.933	-0.1	
944.295	0.15	
944.657	0.09	
945.019	0.25	
945.381	0.25	
945.743	0.21	
946.105	0.1	
946.467	0.2	
946.828	0.35	
947.19	0.24	
947.551	-0.22	
947.913	0.23	
948.274	0.01	
948.636	-0.06	
948.997	0.01	
949.358	0.44	
949.719	0.47	
950.08	0.2	
950.441	0.27	
950.802	0.13	
951.163	0.44	
951.524	0.2	
951.885	0.64	
952.245	0.4	
952.606	0.55	
952.966	0.08	
953.327	-0	
953.687	0.18	
954.047	0.13	
954.408	-0.2	
954.768	0.56	
955.128	0.04	
955.488	0.13	
955.848	0.07	
956.208	0.31	
956.568	1.64	
956.927	0.17	
957.287	0.37	
957.647	0.17	
958.006	0.12	
958.366	0.36	
958.725	0.77	
959.084	0.18	
959.444	0.66	
959.803	0.36	
960.162	0.11	
960.521	0.36	
960.88	0.21	
961.239	-0.09	
961.598	0.13	
961.957	0.08	
962.315	0.12	
962.674	0.1	
963.033	-0	
963.391	0.93	
963.75	0.49	
964.108	0.19	
964.466	0.28	
964.824	1.3	
965.183	0.4	
965.541	-0	
965.899	0.19	
966.257	-0.21	
966.614	0.38	
966.972	0.46	
967.33	0.54	
967.688	1.14	
968.045	0.07	
968.403	-0	
968.76	0.16	
969.118	0.66	
969.475	0.24	
969.832	0.2	
970.189	0.42	
970.546	-0.05	
970.903	0.2	
971.26	-0.55	
971.617	0.33	
971.974	-0.04	
972.331	0.04	
972.688	-0.05	
973.044	-0	
973.401	-0.18	
973.757	0.34	
974.114	0.5	
974.47	-1.49	
974.826	-0	
975.182	-0	
975.538	0.24	
975.895	0.27	
976.251	-0	
976.606	0.39	
976.962	0.03	
977.318	0.15	
977.674	0.16	
978.029	-0.36	
978.385	0.18	
978.74	0.94	
979.096	-0	
979.451	-0.12	
979.806	0.55	
980.162	0.86	
980.517	1.38	
980.872	-0	
981.227	-0.55	
981.582	0.19	
981.937	0.54	
982.291	-0	
982.646	0.6	
983.001	-0	
983.355	0.25	
983.71	0.12	
984.064	-0	
984.419	-0.08	
984.773	0.17	
985.127	-0.56	
985.481	-0	
985.835	0.69	
986.189	-0.17	
986.543	0.2	
986.897	0.03	
987.251	-0	
987.605	-0.39	
987.958	-0.31	
988.312	0.07	
988.665	0.28	
989.019	-0	
989.372	0.07	
989.725	-0.32	
990.079	-0	
990.432	-0.44	
990.785	-0.32	
991.138	-0.81	
991.491	-0.03	
991.844	-0	
992.197	-0.13	
992.549	0.91	
992.902	-0.58	
993.254	-0.13	
993.607	-0	
993.959	0.12	
994.312	-0.19	
994.664	-0	
995.016	-0.01	
995.368	0.8	
995.721	0.06	
996.073	0.04	
996.425	-0	
996.776	0.49	
997.128	0.03	
997.48	0.89	
997.832	-0	
998.183	0.03	
998.535	0.6	
998.886	-0.11	
999.237	-0.28	
999.589	-0.14	
999.94	-0.42	
1000.291	-0.56	
1000.642	0.4	
1000.993	0.16	
1001.344	-0.55	
1001.695	0.22	
1002.046	-0.06	
1002.397	-0.16	
1002.747	-0.43	
1003.098	0.19	
1003.448	0.19	
1003.799	-0.09	
1004.149	-0.46	
1004.499	1.22	
1004.85	-0	
1005.2	-0.26	
1005.55	-0.15	
1005.9	-0.13	
1006.25	-0	
1006.6	0.17	
1006.949	1	
1007.299	-0.12	
1007.649	0.02	
1007.998	-0.81	
1008.348	-0	
1008.697	0.19	
1009.047	0.55	
1009.396	-0.45	
1009.745	-0	
1010.094	-0.22	
1010.443	-0.56	
1010.792	-0.33	
1011.141	-0.03	
1011.49	0.04	
1011.839	0.08	
1012.188	-0.1	
1012.536	0.73	
1012.885	-0.28	
1013.233	-0.1	
1013.582	1.72	
1013.93	0.08	
1014.278	-0.59	
1014.627	0.06	
1014.975	0.09	
1015.323	-0.43	
1015.671	-1.18	
1016.019	-0	
1016.367	-0	
1016.714	1.21	
1017.062	-0	
1017.41	0.29	
1017.757	-0.15	
1018.105	-0	
1018.452	-0	
1018.8	-0	
1019.147	-0	
1019.494	-0.51	
1019.841	0.46	
1020.188	-0.33	
1020.535	0.46	
1020.882	-0.36	
1021.229	0.21	
1021.576	-0.73	
1021.922	0.15	
1022.269	-0	
1022.615	-0.52	
1022.962	-0.06	
1023.308	-0.06	
1023.655	-0.06	
